{
    "AutoApprovalTime": "2017-11-30T20:07:46Z",
    "AssignmentId": "358010RM5ETYHV62PWXBBSJD3Z6XVL",
    "WorkerId": "AWXIEV9H6KT9E",
    "answers": {
        "practice_order": [],
        "trial_order": [],
        "demographicsData": [
            {
                "ReligiousAffiliation": ".",
                "ReligiousAttendance": "3",
                "SES": "6",
                "Age": "24",
                "Political": "4",
                "Comments": ".",
                "Education": "3",
                "Citizen": "1",
                "Male": "0",
                "Ethnicity": "3"
            }
        ],
        "faceType": 19,
        "wordType": "threatening",
        "faceInput": "w02",
        "wordInput": "dangerous",
        "keyBindings": {
            "q": "safe",
            "p": "threatening"
        },
        "data": [
            {
                "rt": 0,
                "word": "safe",
                "responded": 0,
                "wordStim": "harmless",
                "race": 265,
                "raceStim": "b11",
                "trial_num": 1,
                "correct": 0
            },
            {
                "rt": 10,
                "word": "threatening",
                "responded": 1,
                "userResponse": "threatening",
                "wordStim": "violent",
                "race": 210,
                "correctResponse": "threatening",
                "raceStim": "b06",
                "trial_num": 2,
                "correct": 1
            },
            {
                "rt": 70,
                "word": "threatening",
                "responded": 1,
                "userResponse": "safe",
                "wordStim": "criminal",
                "race": 58,
                "correctResponse": "threatening",
                "raceStim": "w05",
                "trial_num": 3,
                "correct": 0
            },
            {
                "rt": 39,
                "word": "threatening",
                "responded": 1,
                "userResponse": "threatening",
                "wordStim": "criminal",
                "race": 10,
                "correctResponse": "threatening",
                "raceStim": "w01",
                "trial_num": 4,
                "correct": 1
            },
            {
                "rt": 284,
                "word": "threatening",
                "responded": 1,
                "userResponse": "threatening",
                "wordStim": "hostile",
                "race": 8,
                "correctResponse": "threatening",
                "raceStim": "w01",
                "trial_num": 5,
                "correct": 1
            },
            {
                "rt": 26,
                "word": "threatening",
                "responded": 1,
                "userResponse": "safe",
                "wordStim": "dangerous",
                "race": 67,
                "correctResponse": "threatening",
                "raceStim": "w06",
                "trial_num": 6,
                "correct": 0
            },
            {
                "rt": 20,
                "word": "threatening",
                "responded": 1,
                "userResponse": "safe",
                "wordStim": "hostile",
                "race": 44,
                "correctResponse": "threatening",
                "raceStim": "w04",
                "trial_num": 7,
                "correct": 0
            },
            {
                "rt": 27,
                "word": "threatening",
                "responded": 1,
                "userResponse": "safe",
                "wordStim": "dangerous",
                "race": 43,
                "correctResponse": "threatening",
                "raceStim": "w04",
                "trial_num": 8,
                "correct": 0
            },
            {
                "rt": 17,
                "word": "threatening",
                "responded": 1,
                "userResponse": "threatening",
                "wordStim": "violent",
                "race": 114,
                "correctResponse": "threatening",
                "raceStim": "w10",
                "trial_num": 9,
                "correct": 1
            },
            {
                "rt": 188,
                "word": "threatening",
                "responded": 1,
                "userResponse": "threatening",
                "wordStim": "violent",
                "race": 246,
                "correctResponse": "threatening",
                "raceStim": "b09",
                "trial_num": 10,
                "correct": 1
            },
            {
                "rt": 14,
                "word": "safe",
                "responded": 1,
                "userResponse": "safe",
                "wordStim": "trustworthy",
                "race": 123,
                "correctResponse": "safe",
                "raceStim": "w11",
                "trial_num": 11,
                "correct": 1
            },
            {
                "rt": 201,
                "word": "threatening",
                "responded": 1,
                "userResponse": "threatening",
                "wordStim": "dangerous",
                "race": 199,
                "correctResponse": "threatening",
                "raceStim": "b05",
                "trial_num": 12,
                "correct": 1
            },
            {
                "rt": 78,
                "word": "safe",
                "responded": 1,
                "userResponse": "safe",
                "wordStim": "harmless",
                "race": 13,
                "correctResponse": "safe",
                "raceStim": "w02",
                "trial_num": 13,
                "correct": 1
            },
            {
                "rt": 237,
                "word": "threatening",
                "responded": 1,
                "userResponse": "safe",
                "wordStim": "hostile",
                "race": 20,
                "correctResponse": "threatening",
                "raceStim": "w02",
                "trial_num": 14,
                "correct": 0
            },
            {
                "rt": 109,
                "word": "threatening",
                "responded": 1,
                "userResponse": "threatening",
                "wordStim": "dangerous",
                "race": 211,
                "correctResponse": "threatening",
                "raceStim": "b06",
                "trial_num": 15,
                "correct": 1
            },
            {
                "rt": 39,
                "word": "safe",
                "responded": 1,
                "userResponse": "safe",
                "wordStim": "harmless",
                "race": 61,
                "correctResponse": "safe",
                "raceStim": "w06",
                "trial_num": 16,
                "correct": 1
            },
            {
                "rt": 25,
                "word": "threatening",
                "responded": 1,
                "userResponse": "safe",
                "wordStim": "violent",
                "race": 102,
                "correctResponse": "threatening",
                "raceStim": "w09",
                "trial_num": 17,
                "correct": 0
            },
            {
                "rt": 61,
                "word": "threatening",
                "responded": 1,
                "userResponse": "safe",
                "wordStim": "aggressive",
                "race": 249,
                "correctResponse": "threatening",
                "raceStim": "b09",
                "trial_num": 18,
                "correct": 0
            },
            {
                "rt": 132,
                "word": "safe",
                "responded": 1,
                "userResponse": "threatening",
                "wordStim": "harmless",
                "race": 193,
                "correctResponse": "safe",
                "raceStim": "b05",
                "trial_num": 19,
                "correct": 0
            },
            {
                "rt": 1,
                "word": "threatening",
                "responded": 1,
                "userResponse": "threatening",
                "wordStim": "criminal",
                "race": 262,
                "correctResponse": "threatening",
                "raceStim": "b10",
                "trial_num": 20,
                "correct": 1
            },
            {
                "rt": 29,
                "word": "safe",
                "responded": 1,
                "userResponse": "safe",
                "wordStim": "trustworthy",
                "race": 75,
                "correctResponse": "safe",
                "raceStim": "w07",
                "trial_num": 21,
                "correct": 1
            },
            {
                "rt": 48,
                "word": "threatening",
                "responded": 1,
                "userResponse": "safe",
                "wordStim": "violent",
                "race": 30,
                "correctResponse": "threatening",
                "raceStim": "w03",
                "trial_num": 22,
                "correct": 0
            },
            {
                "rt": 4,
                "word": "threatening",
                "responded": 1,
                "userResponse": "threatening",
                "wordStim": "aggressive",
                "race": 273,
                "correctResponse": "threatening",
                "raceStim": "b11",
                "trial_num": 23,
                "correct": 1
            },
            {
                "rt": 1,
                "word": "threatening",
                "responded": 1,
                "userResponse": "safe",
                "wordStim": "criminal",
                "race": 274,
                "correctResponse": "threatening",
                "raceStim": "b11",
                "trial_num": 24,
                "correct": 0
            },
            {
                "rt": 33,
                "word": "threatening",
                "responded": 1,
                "userResponse": "safe",
                "wordStim": "hostile",
                "race": 176,
                "correctResponse": "threatening",
                "raceStim": "b03",
                "trial_num": 25,
                "correct": 0
            },
            {
                "rt": 188,
                "word": "threatening",
                "responded": 1,
                "userResponse": "threatening",
                "wordStim": "threatening",
                "race": 47,
                "correctResponse": "threatening",
                "raceStim": "w04",
                "trial_num": 26,
                "correct": 1
            },
            {
                "rt": 184,
                "word": "threatening",
                "responded": 1,
                "userResponse": "threatening",
                "wordStim": "criminal",
                "race": 70,
                "correctResponse": "threatening",
                "raceStim": "w06",
                "trial_num": 27,
                "correct": 1
            },
            {
                "rt": 97,
                "word": "safe",
                "responded": 1,
                "userResponse": "safe",
                "wordStim": "trustworthy",
                "race": 87,
                "correctResponse": "safe",
                "raceStim": "w08",
                "trial_num": 28,
                "correct": 1
            },
            {
                "rt": 161,
                "word": "safe",
                "responded": 1,
                "userResponse": "safe",
                "wordStim": "innocent",
                "race": 36,
                "correctResponse": "safe",
                "raceStim": "w04",
                "trial_num": 29,
                "correct": 1
            },
            {
                "rt": 250,
                "word": "threatening",
                "responded": 1,
                "userResponse": "safe",
                "wordStim": "aggressive",
                "race": 81,
                "correctResponse": "threatening",
                "raceStim": "w07",
                "trial_num": 30,
                "correct": 0
            },
            {
                "rt": 182,
                "word": "safe",
                "responded": 1,
                "userResponse": "safe",
                "wordStim": "friendly",
                "race": 134,
                "correctResponse": "safe",
                "raceStim": "w12",
                "trial_num": 31,
                "correct": 1
            },
            {
                "rt": 10,
                "word": "threatening",
                "responded": 1,
                "userResponse": "safe",
                "wordStim": "hostile",
                "race": 68,
                "correctResponse": "threatening",
                "raceStim": "w06",
                "trial_num": 32,
                "correct": 0
            },
            {
                "rt": 61,
                "word": "threatening",
                "responded": 1,
                "userResponse": "safe",
                "wordStim": "threatening",
                "race": 263,
                "correctResponse": "threatening",
                "raceStim": "b10",
                "trial_num": 33,
                "correct": 0
            },
            {
                "rt": 80,
                "word": "safe",
                "responded": 1,
                "userResponse": "threatening",
                "wordStim": "peaceful",
                "race": 4,
                "correctResponse": "safe",
                "raceStim": "w01",
                "trial_num": 34,
                "correct": 0
            },
            {
                "rt": 248,
                "word": "threatening",
                "responded": 1,
                "userResponse": "safe",
                "wordStim": "criminal",
                "race": 178,
                "correctResponse": "threatening",
                "raceStim": "b03",
                "trial_num": 35,
                "correct": 0
            },
            {
                "rt": 99,
                "word": "safe",
                "responded": 1,
                "userResponse": "threatening",
                "wordStim": "safe",
                "race": 29,
                "correctResponse": "safe",
                "raceStim": "w03",
                "trial_num": 36,
                "correct": 0
            },
            {
                "rt": 120,
                "word": "threatening",
                "responded": 1,
                "userResponse": "threatening",
                "wordStim": "hostile",
                "race": 32,
                "correctResponse": "threatening",
                "raceStim": "w03",
                "trial_num": 37,
                "correct": 1
            },
            {
                "rt": 40,
                "word": "threatening",
                "responded": 1,
                "userResponse": "safe",
                "wordStim": "hostile",
                "race": 284,
                "correctResponse": "threatening",
                "raceStim": "b12",
                "trial_num": 38,
                "correct": 0
            },
            {
                "rt": 188,
                "word": "threatening",
                "responded": 1,
                "userResponse": "threatening",
                "wordStim": "aggressive",
                "race": 189,
                "correctResponse": "threatening",
                "raceStim": "b04",
                "trial_num": 39,
                "correct": 1
            },
            {
                "rt": 49,
                "word": "safe",
                "responded": 1,
                "userResponse": "threatening",
                "wordStim": "trustworthy",
                "race": 195,
                "correctResponse": "safe",
                "raceStim": "b05",
                "trial_num": 40,
                "correct": 0
            },
            {
                "rt": 152,
                "word": "safe",
                "responded": 1,
                "userResponse": "threatening",
                "wordStim": "harmless",
                "race": 73,
                "correctResponse": "safe",
                "raceStim": "w07",
                "trial_num": 41,
                "correct": 0
            },
            {
                "rt": 218,
                "word": "safe",
                "responded": 1,
                "userResponse": "safe",
                "wordStim": "peaceful",
                "race": 232,
                "correctResponse": "safe",
                "raceStim": "b08",
                "trial_num": 42,
                "correct": 1
            },
            {
                "rt": 79,
                "word": "threatening",
                "responded": 1,
                "userResponse": "safe",
                "wordStim": "violent",
                "race": 90,
                "correctResponse": "threatening",
                "raceStim": "w08",
                "trial_num": 43,
                "correct": 0
            },
            {
                "rt": 54,
                "word": "safe",
                "responded": 1,
                "userResponse": "threatening",
                "wordStim": "innocent",
                "race": 252,
                "correctResponse": "safe",
                "raceStim": "b10",
                "trial_num": 44,
                "correct": 0
            },
            {
                "rt": 1,
                "word": "threatening",
                "responded": 1,
                "userResponse": "safe",
                "wordStim": "criminal",
                "race": 154,
                "correctResponse": "threatening",
                "raceStim": "b01",
                "trial_num": 45,
                "correct": 0
            },
            {
                "rt": 202,
                "word": "threatening",
                "responded": 1,
                "userResponse": "safe",
                "wordStim": "threatening",
                "race": 275,
                "correctResponse": "threatening",
                "raceStim": "b11",
                "trial_num": 46,
                "correct": 0
            },
            {
                "rt": 146,
                "word": "threatening",
                "responded": 1,
                "userResponse": "threatening",
                "wordStim": "aggressive",
                "race": 177,
                "correctResponse": "threatening",
                "raceStim": "b03",
                "trial_num": 47,
                "correct": 1
            },
            {
                "rt": 111,
                "word": "safe",
                "responded": 1,
                "userResponse": "threatening",
                "wordStim": "innocent",
                "race": 12,
                "correctResponse": "safe",
                "raceStim": "w02",
                "trial_num": 48,
                "correct": 0
            },
            {
                "rt": 232,
                "word": "threatening",
                "responded": 1,
                "userResponse": "safe",
                "wordStim": "dangerous",
                "race": 103,
                "correctResponse": "threatening",
                "raceStim": "w09",
                "trial_num": 49,
                "correct": 0
            },
            {
                "rt": 133,
                "word": "safe",
                "responded": 1,
                "userResponse": "safe",
                "wordStim": "peaceful",
                "race": 100,
                "correctResponse": "safe",
                "raceStim": "w09",
                "trial_num": 50,
                "correct": 1
            },
            {
                "rt": 5,
                "word": "safe",
                "responded": 1,
                "userResponse": "safe",
                "wordStim": "innocent",
                "race": 264,
                "correctResponse": "safe",
                "raceStim": "b11",
                "trial_num": 51,
                "correct": 1
            },
            {
                "rt": 138,
                "word": "safe",
                "responded": 1,
                "userResponse": "safe",
                "wordStim": "harmless",
                "race": 145,
                "correctResponse": "safe",
                "raceStim": "b01",
                "trial_num": 52,
                "correct": 1
            },
            {
                "rt": 67,
                "word": "safe",
                "responded": 1,
                "userResponse": "safe",
                "wordStim": "peaceful",
                "race": 220,
                "correctResponse": "safe",
                "raceStim": "b07",
                "trial_num": 53,
                "correct": 1
            },
            {
                "rt": 102,
                "word": "threatening",
                "responded": 1,
                "userResponse": "safe",
                "wordStim": "aggressive",
                "race": 285,
                "correctResponse": "threatening",
                "raceStim": "b12",
                "trial_num": 54,
                "correct": 0
            },
            {
                "rt": 192,
                "word": "threatening",
                "responded": 1,
                "userResponse": "safe",
                "wordStim": "aggressive",
                "race": 57,
                "correctResponse": "threatening",
                "raceStim": "w05",
                "trial_num": 55,
                "correct": 0
            },
            {
                "rt": 75,
                "word": "safe",
                "responded": 1,
                "userResponse": "safe",
                "wordStim": "harmless",
                "race": 1,
                "correctResponse": "safe",
                "raceStim": "w01",
                "trial_num": 56,
                "correct": 1
            },
            {
                "rt": 262,
                "word": "threatening",
                "responded": 1,
                "userResponse": "safe",
                "wordStim": "dangerous",
                "race": 235,
                "correctResponse": "threatening",
                "raceStim": "b08",
                "trial_num": 57,
                "correct": 0
            },
            {
                "rt": 98,
                "word": "safe",
                "responded": 1,
                "userResponse": "threatening",
                "wordStim": "peaceful",
                "race": 88,
                "correctResponse": "safe",
                "raceStim": "w08",
                "trial_num": 58,
                "correct": 0
            },
            {
                "rt": 71,
                "word": "threatening",
                "responded": 1,
                "userResponse": "threatening",
                "wordStim": "hostile",
                "race": 164,
                "correctResponse": "threatening",
                "raceStim": "b02",
                "trial_num": 59,
                "correct": 1
            },
            {
                "rt": 5,
                "word": "threatening",
                "responded": 1,
                "userResponse": "threatening",
                "wordStim": "threatening",
                "race": 215,
                "correctResponse": "threatening",
                "raceStim": "b06",
                "trial_num": 60,
                "correct": 1
            },
            {
                "rt": 72,
                "word": "safe",
                "responded": 1,
                "userResponse": "threatening",
                "wordStim": "friendly",
                "race": 182,
                "correctResponse": "safe",
                "raceStim": "b04",
                "trial_num": 61,
                "correct": 0
            },
            {
                "rt": 112,
                "word": "threatening",
                "responded": 1,
                "userResponse": "threatening",
                "wordStim": "threatening",
                "race": 71,
                "correctResponse": "threatening",
                "raceStim": "w06",
                "trial_num": 62,
                "correct": 1
            },
            {
                "rt": 145,
                "word": "threatening",
                "responded": 1,
                "userResponse": "safe",
                "wordStim": "criminal",
                "race": 226,
                "correctResponse": "threatening",
                "raceStim": "b07",
                "trial_num": 63,
                "correct": 0
            },
            {
                "rt": 31,
                "word": "threatening",
                "responded": 1,
                "userResponse": "threatening",
                "wordStim": "hostile",
                "race": 260,
                "correctResponse": "threatening",
                "raceStim": "b10",
                "trial_num": 64,
                "correct": 1
            },
            {
                "rt": 30,
                "word": "safe",
                "responded": 1,
                "userResponse": "safe",
                "wordStim": "safe",
                "race": 281,
                "correctResponse": "safe",
                "raceStim": "b12",
                "trial_num": 65,
                "correct": 1
            },
            {
                "rt": 106,
                "word": "threatening",
                "responded": 1,
                "userResponse": "safe",
                "wordStim": "aggressive",
                "race": 153,
                "correctResponse": "threatening",
                "raceStim": "b01",
                "trial_num": 66,
                "correct": 0
            },
            {
                "rt": 92,
                "word": "threatening",
                "responded": 1,
                "userResponse": "threatening",
                "wordStim": "aggressive",
                "race": 141,
                "correctResponse": "threatening",
                "raceStim": "w12",
                "trial_num": 67,
                "correct": 1
            },
            {
                "rt": 4,
                "word": "safe",
                "responded": 1,
                "userResponse": "threatening",
                "wordStim": "safe",
                "race": 113,
                "correctResponse": "safe",
                "raceStim": "w10",
                "trial_num": 68,
                "correct": 0
            },
            {
                "rt": 16,
                "word": "safe",
                "responded": 1,
                "userResponse": "threatening",
                "wordStim": "harmless",
                "race": 253,
                "correctResponse": "safe",
                "raceStim": "b10",
                "trial_num": 69,
                "correct": 0
            },
            {
                "rt": 167,
                "word": "threatening",
                "responded": 1,
                "userResponse": "threatening",
                "wordStim": "aggressive",
                "race": 9,
                "correctResponse": "threatening",
                "raceStim": "w01",
                "trial_num": 70,
                "correct": 1
            },
            {
                "rt": 56,
                "word": "safe",
                "responded": 1,
                "userResponse": "threatening",
                "wordStim": "safe",
                "race": 53,
                "correctResponse": "safe",
                "raceStim": "w05",
                "trial_num": 71,
                "correct": 0
            },
            {
                "rt": 2,
                "word": "safe",
                "responded": 1,
                "userResponse": "threatening",
                "wordStim": "harmless",
                "race": 229,
                "correctResponse": "safe",
                "raceStim": "b08",
                "trial_num": 72,
                "correct": 0
            },
            {
                "rt": 125,
                "word": "safe",
                "responded": 1,
                "userResponse": "safe",
                "wordStim": "trustworthy",
                "race": 3,
                "correctResponse": "safe",
                "raceStim": "w01",
                "trial_num": 73,
                "correct": 1
            },
            {
                "rt": 84,
                "word": "threatening",
                "responded": 1,
                "userResponse": "safe",
                "wordStim": "violent",
                "race": 258,
                "correctResponse": "threatening",
                "raceStim": "b10",
                "trial_num": 74,
                "correct": 0
            },
            {
                "rt": 142,
                "word": "threatening",
                "responded": 1,
                "userResponse": "threatening",
                "wordStim": "threatening",
                "race": 143,
                "correctResponse": "threatening",
                "raceStim": "w12",
                "trial_num": 75,
                "correct": 1
            },
            {
                "rt": 19,
                "word": "safe",
                "responded": 1,
                "userResponse": "safe",
                "wordStim": "peaceful",
                "race": 172,
                "correctResponse": "safe",
                "raceStim": "b03",
                "trial_num": 76,
                "correct": 1
            },
            {
                "rt": 541,
                "word": "safe",
                "responded": 1,
                "userResponse": "threatening",
                "wordStim": "friendly",
                "race": 206,
                "correctResponse": "safe",
                "raceStim": "b06",
                "trial_num": 77,
                "correct": 0
            },
            {
                "rt": 69,
                "word": "threatening",
                "responded": 1,
                "userResponse": "threatening",
                "wordStim": "dangerous",
                "race": 31,
                "correctResponse": "threatening",
                "raceStim": "w03",
                "trial_num": 78,
                "correct": 1
            },
            {
                "rt": 65,
                "word": "threatening",
                "responded": 1,
                "userResponse": "threatening",
                "wordStim": "violent",
                "race": 186,
                "correctResponse": "threatening",
                "raceStim": "b04",
                "trial_num": 79,
                "correct": 1
            },
            {
                "rt": 150,
                "word": "threatening",
                "responded": 1,
                "userResponse": "safe",
                "wordStim": "hostile",
                "race": 224,
                "correctResponse": "threatening",
                "raceStim": "b07",
                "trial_num": 80,
                "correct": 0
            },
            {
                "rt": 15,
                "word": "threatening",
                "responded": 1,
                "userResponse": "threatening",
                "wordStim": "hostile",
                "race": 248,
                "correctResponse": "threatening",
                "raceStim": "b09",
                "trial_num": 81,
                "correct": 1
            },
            {
                "rt": 209,
                "word": "threatening",
                "responded": 1,
                "userResponse": "threatening",
                "wordStim": "threatening",
                "race": 239,
                "correctResponse": "threatening",
                "raceStim": "b08",
                "trial_num": 82,
                "correct": 1
            },
            {
                "rt": 157,
                "word": "safe",
                "responded": 1,
                "userResponse": "threatening",
                "wordStim": "harmless",
                "race": 277,
                "correctResponse": "safe",
                "raceStim": "b12",
                "trial_num": 83,
                "correct": 0
            },
            {
                "rt": 75,
                "word": "safe",
                "responded": 1,
                "userResponse": "threatening",
                "wordStim": "friendly",
                "race": 110,
                "correctResponse": "safe",
                "raceStim": "w10",
                "trial_num": 84,
                "correct": 0
            },
            {
                "rt": 31,
                "word": "safe",
                "responded": 1,
                "userResponse": "threatening",
                "wordStim": "friendly",
                "race": 74,
                "correctResponse": "safe",
                "raceStim": "w07",
                "trial_num": 85,
                "correct": 0
            },
            {
                "rt": 68,
                "word": "threatening",
                "responded": 1,
                "userResponse": "safe",
                "wordStim": "criminal",
                "race": 286,
                "correctResponse": "threatening",
                "raceStim": "b12",
                "trial_num": 86,
                "correct": 0
            },
            {
                "rt": 404,
                "word": "threatening",
                "responded": 1,
                "userResponse": "safe",
                "wordStim": "dangerous",
                "race": 175,
                "correctResponse": "threatening",
                "raceStim": "b03",
                "trial_num": 87,
                "correct": 0
            },
            {
                "rt": 77,
                "word": "safe",
                "responded": 1,
                "userResponse": "threatening",
                "wordStim": "safe",
                "race": 173,
                "correctResponse": "safe",
                "raceStim": "b03",
                "trial_num": 88,
                "correct": 0
            },
            {
                "rt": 41,
                "word": "threatening",
                "responded": 1,
                "userResponse": "safe",
                "wordStim": "threatening",
                "race": 287,
                "correctResponse": "threatening",
                "raceStim": "b12",
                "trial_num": 89,
                "correct": 0
            },
            {
                "rt": 225,
                "word": "safe",
                "responded": 1,
                "userResponse": "threatening",
                "wordStim": "harmless",
                "race": 121,
                "correctResponse": "safe",
                "raceStim": "w11",
                "trial_num": 90,
                "correct": 0
            },
            {
                "rt": 0,
                "word": "safe",
                "responded": 0,
                "wordStim": "trustworthy",
                "race": 279,
                "raceStim": "b12",
                "trial_num": 91,
                "correct": 0
            },
            {
                "rt": 8,
                "word": "threatening",
                "responded": 1,
                "userResponse": "threatening",
                "wordStim": "aggressive",
                "race": 165,
                "correctResponse": "threatening",
                "raceStim": "b02",
                "trial_num": 92,
                "correct": 1
            },
            {
                "rt": 198,
                "word": "safe",
                "responded": 1,
                "userResponse": "safe",
                "wordStim": "trustworthy",
                "race": 51,
                "correctResponse": "safe",
                "raceStim": "w05",
                "trial_num": 93,
                "correct": 1
            },
            {
                "rt": 106,
                "word": "threatening",
                "responded": 1,
                "userResponse": "safe",
                "wordStim": "dangerous",
                "race": 139,
                "correctResponse": "threatening",
                "raceStim": "w12",
                "trial_num": 94,
                "correct": 0
            },
            {
                "rt": 62,
                "word": "threatening",
                "responded": 1,
                "userResponse": "safe",
                "wordStim": "threatening",
                "race": 119,
                "correctResponse": "threatening",
                "raceStim": "w10",
                "trial_num": 95,
                "correct": 0
            },
            {
                "rt": 90,
                "word": "safe",
                "responded": 1,
                "userResponse": "safe",
                "wordStim": "safe",
                "race": 185,
                "correctResponse": "safe",
                "raceStim": "b04",
                "trial_num": 96,
                "correct": 1
            },
            {
                "rt": 44,
                "word": "safe",
                "responded": 1,
                "userResponse": "threatening",
                "wordStim": "trustworthy",
                "race": 207,
                "correctResponse": "safe",
                "raceStim": "b06",
                "trial_num": 97,
                "correct": 0
            },
            {
                "rt": 2,
                "word": "threatening",
                "responded": 1,
                "userResponse": "threatening",
                "wordStim": "violent",
                "race": 6,
                "correctResponse": "threatening",
                "raceStim": "w01",
                "trial_num": 98,
                "correct": 1
            },
            {
                "rt": 127,
                "word": "safe",
                "responded": 1,
                "userResponse": "safe",
                "wordStim": "friendly",
                "race": 122,
                "correctResponse": "safe",
                "raceStim": "w11",
                "trial_num": 99,
                "correct": 1
            },
            {
                "rt": 53,
                "word": "safe",
                "responded": 1,
                "userResponse": "safe",
                "wordStim": "safe",
                "race": 149,
                "correctResponse": "safe",
                "raceStim": "b01",
                "trial_num": 100,
                "correct": 1
            },
            {
                "rt": 61,
                "word": "threatening",
                "responded": 1,
                "userResponse": "threatening",
                "wordStim": "threatening",
                "race": 131,
                "correctResponse": "threatening",
                "raceStim": "w11",
                "trial_num": 101,
                "correct": 1
            },
            {
                "rt": 94,
                "word": "threatening",
                "responded": 1,
                "userResponse": "safe",
                "wordStim": "threatening",
                "race": 167,
                "correctResponse": "threatening",
                "raceStim": "b02",
                "trial_num": 102,
                "correct": 0
            },
            {
                "rt": 80,
                "word": "threatening",
                "responded": 1,
                "userResponse": "safe",
                "wordStim": "aggressive",
                "race": 261,
                "correctResponse": "threatening",
                "raceStim": "b10",
                "trial_num": 103,
                "correct": 0
            },
            {
                "rt": 71,
                "word": "safe",
                "responded": 1,
                "userResponse": "threatening",
                "wordStim": "friendly",
                "race": 62,
                "correctResponse": "safe",
                "raceStim": "w06",
                "trial_num": 104,
                "correct": 0
            },
            {
                "rt": 8,
                "word": "threatening",
                "responded": 1,
                "userResponse": "threatening",
                "wordStim": "aggressive",
                "race": 213,
                "correctResponse": "threatening",
                "raceStim": "b06",
                "trial_num": 105,
                "correct": 1
            },
            {
                "rt": 20,
                "word": "safe",
                "responded": 1,
                "userResponse": "safe",
                "wordStim": "safe",
                "race": 245,
                "correctResponse": "safe",
                "raceStim": "b09",
                "trial_num": 106,
                "correct": 1
            },
            {
                "rt": 1,
                "word": "safe",
                "responded": 1,
                "userResponse": "threatening",
                "wordStim": "friendly",
                "race": 26,
                "correctResponse": "safe",
                "raceStim": "w03",
                "trial_num": 107,
                "correct": 0
            },
            {
                "rt": 102,
                "word": "threatening",
                "responded": 1,
                "userResponse": "safe",
                "wordStim": "hostile",
                "race": 272,
                "correctResponse": "threatening",
                "raceStim": "b11",
                "trial_num": 108,
                "correct": 0
            },
            {
                "rt": 167,
                "word": "safe",
                "responded": 1,
                "userResponse": "safe",
                "wordStim": "trustworthy",
                "race": 63,
                "correctResponse": "safe",
                "raceStim": "w06",
                "trial_num": 109,
                "correct": 1
            },
            {
                "rt": 125,
                "word": "safe",
                "responded": 1,
                "userResponse": "safe",
                "wordStim": "innocent",
                "race": 48,
                "correctResponse": "safe",
                "raceStim": "w05",
                "trial_num": 110,
                "correct": 1
            },
            {
                "rt": 130,
                "word": "threatening",
                "responded": 1,
                "userResponse": "safe",
                "wordStim": "threatening",
                "race": 83,
                "correctResponse": "threatening",
                "raceStim": "w07",
                "trial_num": 111,
                "correct": 0
            },
            {
                "rt": 100,
                "word": "threatening",
                "responded": 1,
                "userResponse": "safe",
                "wordStim": "dangerous",
                "race": 115,
                "correctResponse": "threatening",
                "raceStim": "w10",
                "trial_num": 112,
                "correct": 0
            },
            {
                "rt": 174,
                "word": "threatening",
                "responded": 1,
                "userResponse": "safe",
                "wordStim": "aggressive",
                "race": 225,
                "correctResponse": "threatening",
                "raceStim": "b07",
                "trial_num": 113,
                "correct": 0
            },
            {
                "rt": 7,
                "word": "threatening",
                "responded": 1,
                "userResponse": "threatening",
                "wordStim": "hostile",
                "race": 140,
                "correctResponse": "threatening",
                "raceStim": "w12",
                "trial_num": 114,
                "correct": 1
            },
            {
                "rt": 111,
                "word": "threatening",
                "responded": 1,
                "userResponse": "safe",
                "wordStim": "violent",
                "race": 198,
                "correctResponse": "threatening",
                "raceStim": "b05",
                "trial_num": 115,
                "correct": 0
            },
            {
                "rt": 79,
                "word": "threatening",
                "responded": 1,
                "userResponse": "safe",
                "wordStim": "criminal",
                "race": 118,
                "correctResponse": "threatening",
                "raceStim": "w10",
                "trial_num": 116,
                "correct": 0
            },
            {
                "rt": 35,
                "word": "safe",
                "responded": 1,
                "userResponse": "threatening",
                "wordStim": "peaceful",
                "race": 268,
                "correctResponse": "safe",
                "raceStim": "b11",
                "trial_num": 117,
                "correct": 0
            },
            {
                "rt": 66,
                "word": "safe",
                "responded": 1,
                "userResponse": "threatening",
                "wordStim": "friendly",
                "race": 50,
                "correctResponse": "safe",
                "raceStim": "w05",
                "trial_num": 118,
                "correct": 0
            },
            {
                "rt": 32,
                "word": "safe",
                "responded": 1,
                "userResponse": "threatening",
                "wordStim": "innocent",
                "race": 192,
                "correctResponse": "safe",
                "raceStim": "b05",
                "trial_num": 119,
                "correct": 0
            },
            {
                "rt": 121,
                "word": "safe",
                "responded": 1,
                "userResponse": "safe",
                "wordStim": "peaceful",
                "race": 124,
                "correctResponse": "safe",
                "raceStim": "w11",
                "trial_num": 120,
                "correct": 1
            },
            {
                "rt": 0,
                "word": "threatening",
                "responded": 0,
                "wordStim": "hostile",
                "race": 188,
                "raceStim": "b04",
                "trial_num": 121,
                "correct": 0
            },
            {
                "rt": 177,
                "word": "safe",
                "responded": 1,
                "userResponse": "safe",
                "wordStim": "innocent",
                "race": 216,
                "correctResponse": "safe",
                "raceStim": "b07",
                "trial_num": 122,
                "correct": 1
            },
            {
                "rt": 191,
                "word": "threatening",
                "responded": 1,
                "userResponse": "safe",
                "wordStim": "aggressive",
                "race": 237,
                "correctResponse": "threatening",
                "raceStim": "b08",
                "trial_num": 123,
                "correct": 0
            },
            {
                "rt": 19,
                "word": "threatening",
                "responded": 1,
                "userResponse": "threatening",
                "wordStim": "hostile",
                "race": 200,
                "correctResponse": "threatening",
                "raceStim": "b05",
                "trial_num": 124,
                "correct": 1
            },
            {
                "rt": 59,
                "word": "safe",
                "responded": 1,
                "userResponse": "threatening",
                "wordStim": "trustworthy",
                "race": 267,
                "correctResponse": "safe",
                "raceStim": "b11",
                "trial_num": 125,
                "correct": 0
            },
            {
                "rt": 171,
                "word": "threatening",
                "responded": 1,
                "userResponse": "safe",
                "wordStim": "threatening",
                "race": 227,
                "correctResponse": "threatening",
                "raceStim": "b07",
                "trial_num": 126,
                "correct": 0
            },
            {
                "rt": 173,
                "word": "safe",
                "responded": 1,
                "userResponse": "safe",
                "wordStim": "trustworthy",
                "race": 219,
                "correctResponse": "safe",
                "raceStim": "b07",
                "trial_num": 127,
                "correct": 1
            },
            {
                "rt": 133,
                "word": "safe",
                "responded": 1,
                "userResponse": "threatening",
                "wordStim": "peaceful",
                "race": 16,
                "correctResponse": "safe",
                "raceStim": "w02",
                "trial_num": 128,
                "correct": 0
            },
            {
                "rt": 1,
                "word": "safe",
                "responded": 1,
                "userResponse": "threatening",
                "wordStim": "trustworthy",
                "race": 147,
                "correctResponse": "safe",
                "raceStim": "b01",
                "trial_num": 129,
                "correct": 0
            },
            {
                "rt": 12,
                "word": "threatening",
                "responded": 1,
                "userResponse": "threatening",
                "wordStim": "threatening",
                "race": 179,
                "correctResponse": "threatening",
                "raceStim": "b03",
                "trial_num": 130,
                "correct": 1
            },
            {
                "rt": 3,
                "word": "threatening",
                "responded": 1,
                "userResponse": "threatening",
                "wordStim": "violent",
                "race": 222,
                "correctResponse": "threatening",
                "raceStim": "b07",
                "trial_num": 131,
                "correct": 1
            },
            {
                "rt": 3,
                "word": "threatening",
                "responded": 1,
                "userResponse": "threatening",
                "wordStim": "dangerous",
                "race": 91,
                "correctResponse": "threatening",
                "raceStim": "w08",
                "trial_num": 132,
                "correct": 1
            },
            {
                "rt": 16,
                "word": "threatening",
                "responded": 1,
                "userResponse": "threatening",
                "wordStim": "criminal",
                "race": 130,
                "correctResponse": "threatening",
                "raceStim": "w11",
                "trial_num": 133,
                "correct": 1
            },
            {
                "rt": 211,
                "word": "threatening",
                "responded": 1,
                "userResponse": "safe",
                "wordStim": "violent",
                "race": 174,
                "correctResponse": "threatening",
                "raceStim": "b03",
                "trial_num": 134,
                "correct": 0
            },
            {
                "rt": 0,
                "word": "safe",
                "responded": 0,
                "wordStim": "trustworthy",
                "race": 111,
                "raceStim": "w10",
                "trial_num": 135,
                "correct": 0
            },
            {
                "rt": 91,
                "word": "safe",
                "responded": 1,
                "userResponse": "threatening",
                "wordStim": "innocent",
                "race": 96,
                "correctResponse": "safe",
                "raceStim": "w09",
                "trial_num": 136,
                "correct": 0
            },
            {
                "rt": 129,
                "word": "threatening",
                "responded": 1,
                "userResponse": "safe",
                "wordStim": "violent",
                "race": 18,
                "correctResponse": "threatening",
                "raceStim": "w02",
                "trial_num": 137,
                "correct": 0
            },
            {
                "rt": 166,
                "word": "safe",
                "responded": 1,
                "userResponse": "safe",
                "wordStim": "friendly",
                "race": 98,
                "correctResponse": "safe",
                "raceStim": "w09",
                "trial_num": 138,
                "correct": 1
            },
            {
                "rt": 149,
                "word": "safe",
                "responded": 1,
                "userResponse": "safe",
                "wordStim": "innocent",
                "race": 108,
                "correctResponse": "safe",
                "raceStim": "w10",
                "trial_num": 139,
                "correct": 1
            },
            {
                "rt": 51,
                "word": "threatening",
                "responded": 1,
                "userResponse": "threatening",
                "wordStim": "hostile",
                "race": 116,
                "correctResponse": "threatening",
                "raceStim": "w10",
                "trial_num": 140,
                "correct": 1
            },
            {
                "rt": 28,
                "word": "threatening",
                "responded": 1,
                "userResponse": "threatening",
                "wordStim": "criminal",
                "race": 82,
                "correctResponse": "threatening",
                "raceStim": "w07",
                "trial_num": 141,
                "correct": 1
            },
            {
                "rt": 108,
                "word": "safe",
                "responded": 1,
                "userResponse": "safe",
                "wordStim": "harmless",
                "race": 85,
                "correctResponse": "safe",
                "raceStim": "w08",
                "trial_num": 142,
                "correct": 1
            },
            {
                "rt": 30,
                "word": "threatening",
                "responded": 1,
                "userResponse": "threatening",
                "wordStim": "hostile",
                "race": 152,
                "correctResponse": "threatening",
                "raceStim": "b01",
                "trial_num": 143,
                "correct": 1
            },
            {
                "rt": 30,
                "word": "threatening",
                "responded": 1,
                "userResponse": "threatening",
                "wordStim": "hostile",
                "race": 92,
                "correctResponse": "threatening",
                "raceStim": "w08",
                "trial_num": 144,
                "correct": 1
            },
            {
                "rt": 54,
                "word": "safe",
                "responded": 1,
                "userResponse": "threatening",
                "wordStim": "harmless",
                "race": 157,
                "correctResponse": "safe",
                "raceStim": "b02",
                "trial_num": 145,
                "correct": 0
            },
            {
                "rt": 138,
                "word": "threatening",
                "responded": 1,
                "userResponse": "safe",
                "wordStim": "threatening",
                "race": 107,
                "correctResponse": "threatening",
                "raceStim": "w09",
                "trial_num": 146,
                "correct": 0
            },
            {
                "rt": 38,
                "word": "threatening",
                "responded": 1,
                "userResponse": "safe",
                "wordStim": "aggressive",
                "race": 69,
                "correctResponse": "threatening",
                "raceStim": "w06",
                "trial_num": 147,
                "correct": 0
            },
            {
                "rt": 102,
                "word": "safe",
                "responded": 1,
                "userResponse": "safe",
                "wordStim": "trustworthy",
                "race": 243,
                "correctResponse": "safe",
                "raceStim": "b09",
                "trial_num": 148,
                "correct": 1
            },
            {
                "rt": 100,
                "word": "threatening",
                "responded": 1,
                "userResponse": "safe",
                "wordStim": "threatening",
                "race": 11,
                "correctResponse": "threatening",
                "raceStim": "w01",
                "trial_num": 149,
                "correct": 0
            },
            {
                "rt": 25,
                "word": "threatening",
                "responded": 1,
                "userResponse": "threatening",
                "wordStim": "criminal",
                "race": 46,
                "correctResponse": "threatening",
                "raceStim": "w04",
                "trial_num": 150,
                "correct": 1
            },
            {
                "rt": 144,
                "word": "threatening",
                "responded": 1,
                "userResponse": "safe",
                "wordStim": "dangerous",
                "race": 163,
                "correctResponse": "threatening",
                "raceStim": "b02",
                "trial_num": 151,
                "correct": 0
            },
            {
                "rt": 103,
                "word": "safe",
                "responded": 1,
                "userResponse": "threatening",
                "wordStim": "harmless",
                "race": 49,
                "correctResponse": "safe",
                "raceStim": "w05",
                "trial_num": 152,
                "correct": 0
            },
            {
                "rt": 36,
                "word": "threatening",
                "responded": 1,
                "userResponse": "threatening",
                "wordStim": "hostile",
                "race": 56,
                "correctResponse": "threatening",
                "raceStim": "w05",
                "trial_num": 153,
                "correct": 1
            },
            {
                "rt": 15,
                "word": "safe",
                "responded": 1,
                "userResponse": "threatening",
                "wordStim": "harmless",
                "race": 109,
                "correctResponse": "safe",
                "raceStim": "w10",
                "trial_num": 154,
                "correct": 0
            },
            {
                "rt": 43,
                "word": "safe",
                "responded": 1,
                "userResponse": "threatening",
                "wordStim": "safe",
                "race": 101,
                "correctResponse": "safe",
                "raceStim": "w09",
                "trial_num": 155,
                "correct": 0
            },
            {
                "rt": 28,
                "word": "threatening",
                "responded": 1,
                "userResponse": "threatening",
                "wordStim": "criminal",
                "race": 166,
                "correctResponse": "threatening",
                "raceStim": "b02",
                "trial_num": 156,
                "correct": 1
            },
            {
                "rt": 183,
                "word": "safe",
                "responded": 1,
                "userResponse": "safe",
                "wordStim": "safe",
                "race": 257,
                "correctResponse": "safe",
                "raceStim": "b10",
                "trial_num": 157,
                "correct": 1
            },
            {
                "rt": 38,
                "word": "safe",
                "responded": 1,
                "userResponse": "threatening",
                "wordStim": "trustworthy",
                "race": 99,
                "correctResponse": "safe",
                "raceStim": "w09",
                "trial_num": 158,
                "correct": 0
            },
            {
                "rt": 143,
                "word": "safe",
                "responded": 1,
                "userResponse": "safe",
                "wordStim": "trustworthy",
                "race": 255,
                "correctResponse": "safe",
                "raceStim": "b10",
                "trial_num": 159,
                "correct": 1
            },
            {
                "rt": 56,
                "word": "safe",
                "responded": 1,
                "userResponse": "safe",
                "wordStim": "friendly",
                "race": 38,
                "correctResponse": "safe",
                "raceStim": "w04",
                "trial_num": 160,
                "correct": 1
            },
            {
                "rt": 97,
                "word": "threatening",
                "responded": 1,
                "userResponse": "safe",
                "wordStim": "violent",
                "race": 78,
                "correctResponse": "threatening",
                "raceStim": "w07",
                "trial_num": 161,
                "correct": 0
            },
            {
                "rt": 85,
                "word": "threatening",
                "responded": 1,
                "userResponse": "safe",
                "wordStim": "threatening",
                "race": 23,
                "correctResponse": "threatening",
                "raceStim": "w02",
                "trial_num": 162,
                "correct": 0
            },
            {
                "rt": 144,
                "word": "threatening",
                "responded": 1,
                "userResponse": "safe",
                "wordStim": "dangerous",
                "race": 271,
                "correctResponse": "threatening",
                "raceStim": "b11",
                "trial_num": 163,
                "correct": 0
            },
            {
                "rt": 27,
                "word": "safe",
                "responded": 1,
                "userResponse": "threatening",
                "wordStim": "friendly",
                "race": 218,
                "correctResponse": "safe",
                "raceStim": "b07",
                "trial_num": 164,
                "correct": 0
            },
            {
                "rt": 54,
                "word": "safe",
                "responded": 1,
                "userResponse": "threatening",
                "wordStim": "friendly",
                "race": 278,
                "correctResponse": "safe",
                "raceStim": "b12",
                "trial_num": 165,
                "correct": 0
            },
            {
                "rt": 2,
                "word": "safe",
                "responded": 1,
                "userResponse": "threatening",
                "wordStim": "innocent",
                "race": 156,
                "correctResponse": "safe",
                "raceStim": "b02",
                "trial_num": 166,
                "correct": 0
            },
            {
                "rt": 147,
                "word": "safe",
                "responded": 1,
                "userResponse": "safe",
                "wordStim": "peaceful",
                "race": 160,
                "correctResponse": "safe",
                "raceStim": "b02",
                "trial_num": 167,
                "correct": 1
            },
            {
                "rt": 111,
                "word": "threatening",
                "responded": 1,
                "userResponse": "threatening",
                "wordStim": "violent",
                "race": 54,
                "correctResponse": "threatening",
                "raceStim": "w05",
                "trial_num": 168,
                "correct": 1
            },
            {
                "rt": 128,
                "word": "threatening",
                "responded": 1,
                "userResponse": "threatening",
                "wordStim": "aggressive",
                "race": 201,
                "correctResponse": "threatening",
                "raceStim": "b05",
                "trial_num": 169,
                "correct": 1
            },
            {
                "rt": 145,
                "word": "safe",
                "responded": 1,
                "userResponse": "safe",
                "wordStim": "peaceful",
                "race": 208,
                "correctResponse": "safe",
                "raceStim": "b06",
                "trial_num": 170,
                "correct": 1
            },
            {
                "rt": 39,
                "word": "threatening",
                "responded": 1,
                "userResponse": "threatening",
                "wordStim": "threatening",
                "race": 191,
                "correctResponse": "threatening",
                "raceStim": "b04",
                "trial_num": 171,
                "correct": 1
            },
            {
                "rt": 10,
                "word": "threatening",
                "responded": 1,
                "userResponse": "threatening",
                "wordStim": "criminal",
                "race": 214,
                "correctResponse": "threatening",
                "raceStim": "b06",
                "trial_num": 172,
                "correct": 1
            },
            {
                "rt": 118,
                "word": "safe",
                "responded": 1,
                "userResponse": "safe",
                "wordStim": "innocent",
                "race": 180,
                "correctResponse": "safe",
                "raceStim": "b04",
                "trial_num": 173,
                "correct": 1
            },
            {
                "rt": 61,
                "word": "threatening",
                "responded": 1,
                "userResponse": "threatening",
                "wordStim": "violent",
                "race": 42,
                "correctResponse": "threatening",
                "raceStim": "w04",
                "trial_num": 174,
                "correct": 1
            },
            {
                "rt": 46,
                "word": "safe",
                "responded": 1,
                "userResponse": "safe",
                "wordStim": "harmless",
                "race": 205,
                "correctResponse": "safe",
                "raceStim": "b06",
                "trial_num": 175,
                "correct": 1
            },
            {
                "rt": 16,
                "word": "safe",
                "responded": 1,
                "userResponse": "threatening",
                "wordStim": "innocent",
                "race": 24,
                "correctResponse": "safe",
                "raceStim": "w03",
                "trial_num": 176,
                "correct": 0
            },
            {
                "rt": 108,
                "word": "safe",
                "responded": 1,
                "userResponse": "safe",
                "wordStim": "trustworthy",
                "race": 231,
                "correctResponse": "safe",
                "raceStim": "b08",
                "trial_num": 177,
                "correct": 1
            },
            {
                "rt": 49,
                "word": "safe",
                "responded": 1,
                "userResponse": "safe",
                "wordStim": "friendly",
                "race": 146,
                "correctResponse": "safe",
                "raceStim": "b01",
                "trial_num": 178,
                "correct": 1
            },
            {
                "rt": 37,
                "word": "threatening",
                "responded": 1,
                "userResponse": "threatening",
                "wordStim": "dangerous",
                "race": 7,
                "correctResponse": "threatening",
                "raceStim": "w01",
                "trial_num": 179,
                "correct": 1
            },
            {
                "rt": 108,
                "word": "safe",
                "responded": 1,
                "userResponse": "threatening",
                "wordStim": "innocent",
                "race": 132,
                "correctResponse": "safe",
                "raceStim": "w12",
                "trial_num": 180,
                "correct": 0
            },
            {
                "rt": 48,
                "word": "threatening",
                "responded": 1,
                "userResponse": "threatening",
                "wordStim": "dangerous",
                "race": 187,
                "correctResponse": "threatening",
                "raceStim": "b04",
                "trial_num": 181,
                "correct": 1
            },
            {
                "rt": 50,
                "word": "threatening",
                "responded": 1,
                "userResponse": "threatening",
                "wordStim": "hostile",
                "race": 104,
                "correctResponse": "threatening",
                "raceStim": "w09",
                "trial_num": 182,
                "correct": 1
            },
            {
                "rt": 36,
                "word": "threatening",
                "responded": 1,
                "userResponse": "threatening",
                "wordStim": "criminal",
                "race": 202,
                "correctResponse": "threatening",
                "raceStim": "b05",
                "trial_num": 183,
                "correct": 1
            },
            {
                "rt": 101,
                "word": "threatening",
                "responded": 1,
                "userResponse": "threatening",
                "wordStim": "threatening",
                "race": 95,
                "correctResponse": "threatening",
                "raceStim": "w08",
                "trial_num": 184,
                "correct": 1
            },
            {
                "rt": 82,
                "word": "threatening",
                "responded": 1,
                "userResponse": "threatening",
                "wordStim": "criminal",
                "race": 190,
                "correctResponse": "threatening",
                "raceStim": "b04",
                "trial_num": 185,
                "correct": 1
            },
            {
                "rt": 30,
                "word": "safe",
                "responded": 1,
                "userResponse": "threatening",
                "wordStim": "innocent",
                "race": 144,
                "correctResponse": "safe",
                "raceStim": "b01",
                "trial_num": 186,
                "correct": 0
            },
            {
                "rt": 49,
                "word": "threatening",
                "responded": 1,
                "userResponse": "threatening",
                "wordStim": "hostile",
                "race": 80,
                "correctResponse": "threatening",
                "raceStim": "w07",
                "trial_num": 187,
                "correct": 1
            },
            {
                "rt": 169,
                "word": "safe",
                "responded": 1,
                "userResponse": "safe",
                "wordStim": "harmless",
                "race": 133,
                "correctResponse": "safe",
                "raceStim": "w12",
                "trial_num": 188,
                "correct": 1
            },
            {
                "rt": 221,
                "word": "safe",
                "responded": 1,
                "userResponse": "threatening",
                "wordStim": "friendly",
                "race": 266,
                "correctResponse": "safe",
                "raceStim": "b11",
                "trial_num": 189,
                "correct": 0
            },
            {
                "rt": 222,
                "word": "safe",
                "responded": 1,
                "userResponse": "threatening",
                "wordStim": "trustworthy",
                "race": 15,
                "correctResponse": "safe",
                "raceStim": "w02",
                "trial_num": 190,
                "correct": 0
            },
            {
                "rt": 280,
                "word": "safe",
                "responded": 1,
                "userResponse": "threatening",
                "wordStim": "harmless",
                "race": 169,
                "correctResponse": "safe",
                "raceStim": "b03",
                "trial_num": 191,
                "correct": 0
            },
            {
                "rt": 116,
                "word": "threatening",
                "responded": 1,
                "userResponse": "threatening",
                "wordStim": "threatening",
                "race": 59,
                "correctResponse": "threatening",
                "raceStim": "w05",
                "trial_num": 192,
                "correct": 1
            },
            {
                "rt": 124,
                "word": "safe",
                "responded": 1,
                "userResponse": "safe",
                "wordStim": "trustworthy",
                "race": 39,
                "correctResponse": "safe",
                "raceStim": "w04",
                "trial_num": 193,
                "correct": 1
            },
            {
                "rt": 144,
                "word": "safe",
                "responded": 1,
                "userResponse": "safe",
                "wordStim": "innocent",
                "race": 168,
                "correctResponse": "safe",
                "raceStim": "b03",
                "trial_num": 194,
                "correct": 1
            },
            {
                "rt": 9,
                "word": "threatening",
                "responded": 1,
                "userResponse": "threatening",
                "wordStim": "hostile",
                "race": 236,
                "correctResponse": "threatening",
                "raceStim": "b08",
                "trial_num": 195,
                "correct": 1
            },
            {
                "rt": 124,
                "word": "safe",
                "responded": 1,
                "userResponse": "safe",
                "wordStim": "harmless",
                "race": 181,
                "correctResponse": "safe",
                "raceStim": "b04",
                "trial_num": 196,
                "correct": 1
            },
            {
                "rt": 168,
                "word": "threatening",
                "responded": 1,
                "userResponse": "threatening",
                "wordStim": "threatening",
                "race": 155,
                "correctResponse": "threatening",
                "raceStim": "b01",
                "trial_num": 197,
                "correct": 1
            },
            {
                "rt": 159,
                "word": "safe",
                "responded": 1,
                "userResponse": "safe",
                "wordStim": "friendly",
                "race": 170,
                "correctResponse": "safe",
                "raceStim": "b03",
                "trial_num": 198,
                "correct": 1
            },
            {
                "rt": 134,
                "word": "safe",
                "responded": 1,
                "userResponse": "safe",
                "wordStim": "safe",
                "race": 5,
                "correctResponse": "safe",
                "raceStim": "w01",
                "trial_num": 199,
                "correct": 1
            },
            {
                "rt": 98,
                "word": "threatening",
                "responded": 1,
                "userResponse": "safe",
                "wordStim": "violent",
                "race": 282,
                "correctResponse": "threatening",
                "raceStim": "b12",
                "trial_num": 200,
                "correct": 0
            },
            {
                "rt": 27,
                "word": "safe",
                "responded": 1,
                "userResponse": "threatening",
                "wordStim": "safe",
                "race": 197,
                "correctResponse": "safe",
                "raceStim": "b05",
                "trial_num": 201,
                "correct": 0
            },
            {
                "rt": 56,
                "word": "safe",
                "responded": 1,
                "userResponse": "threatening",
                "wordStim": "peaceful",
                "race": 76,
                "correctResponse": "safe",
                "raceStim": "w07",
                "trial_num": 202,
                "correct": 0
            },
            {
                "rt": 39,
                "word": "threatening",
                "responded": 1,
                "userResponse": "threatening",
                "wordStim": "criminal",
                "race": 106,
                "correctResponse": "threatening",
                "raceStim": "w09",
                "trial_num": 203,
                "correct": 1
            },
            {
                "rt": 27,
                "word": "threatening",
                "responded": 1,
                "userResponse": "threatening",
                "wordStim": "violent",
                "race": 126,
                "correctResponse": "threatening",
                "raceStim": "w11",
                "trial_num": 204,
                "correct": 1
            },
            {
                "rt": 173,
                "word": "safe",
                "responded": 1,
                "userResponse": "safe",
                "wordStim": "safe",
                "race": 125,
                "correctResponse": "safe",
                "raceStim": "w11",
                "trial_num": 205,
                "correct": 1
            },
            {
                "rt": 86,
                "word": "safe",
                "responded": 1,
                "userResponse": "safe",
                "wordStim": "peaceful",
                "race": 52,
                "correctResponse": "safe",
                "raceStim": "w05",
                "trial_num": 206,
                "correct": 1
            },
            {
                "rt": 119,
                "word": "safe",
                "responded": 1,
                "userResponse": "safe",
                "wordStim": "trustworthy",
                "race": 183,
                "correctResponse": "safe",
                "raceStim": "b04",
                "trial_num": 207,
                "correct": 1
            },
            {
                "rt": 17,
                "word": "safe",
                "responded": 1,
                "userResponse": "threatening",
                "wordStim": "peaceful",
                "race": 280,
                "correctResponse": "safe",
                "raceStim": "b12",
                "trial_num": 208,
                "correct": 0
            },
            {
                "rt": 55,
                "word": "threatening",
                "responded": 1,
                "userResponse": "threatening",
                "wordStim": "criminal",
                "race": 34,
                "correctResponse": "threatening",
                "raceStim": "w03",
                "trial_num": 209,
                "correct": 1
            },
            {
                "rt": 25,
                "word": "safe",
                "responded": 1,
                "userResponse": "threatening",
                "wordStim": "peaceful",
                "race": 40,
                "correctResponse": "safe",
                "raceStim": "w04",
                "trial_num": 210,
                "correct": 0
            },
            {
                "rt": 171,
                "word": "threatening",
                "responded": 1,
                "userResponse": "threatening",
                "wordStim": "aggressive",
                "race": 21,
                "correctResponse": "threatening",
                "raceStim": "w02",
                "trial_num": 211,
                "correct": 1
            },
            {
                "rt": 24,
                "word": "threatening",
                "responded": 1,
                "userResponse": "threatening",
                "wordStim": "dangerous",
                "race": 283,
                "correctResponse": "threatening",
                "raceStim": "b12",
                "trial_num": 212,
                "correct": 1
            },
            {
                "rt": 119,
                "word": "safe",
                "responded": 1,
                "userResponse": "threatening",
                "wordStim": "peaceful",
                "race": 196,
                "correctResponse": "safe",
                "raceStim": "b05",
                "trial_num": 213,
                "correct": 0
            },
            {
                "rt": 143,
                "word": "threatening",
                "responded": 1,
                "userResponse": "safe",
                "wordStim": "violent",
                "race": 270,
                "correctResponse": "threatening",
                "raceStim": "b11",
                "trial_num": 214,
                "correct": 0
            },
            {
                "rt": 27,
                "word": "safe",
                "responded": 1,
                "userResponse": "threatening",
                "wordStim": "peaceful",
                "race": 148,
                "correctResponse": "safe",
                "raceStim": "b01",
                "trial_num": 215,
                "correct": 0
            },
            {
                "rt": 82,
                "word": "safe",
                "responded": 1,
                "userResponse": "threatening",
                "wordStim": "harmless",
                "race": 217,
                "correctResponse": "safe",
                "raceStim": "b07",
                "trial_num": 216,
                "correct": 0
            },
            {
                "rt": 84,
                "word": "safe",
                "responded": 1,
                "userResponse": "threatening",
                "wordStim": "harmless",
                "race": 25,
                "correctResponse": "safe",
                "raceStim": "w03",
                "trial_num": 217,
                "correct": 0
            },
            {
                "rt": 85,
                "word": "safe",
                "responded": 1,
                "userResponse": "threatening",
                "wordStim": "peaceful",
                "race": 244,
                "correctResponse": "safe",
                "raceStim": "b09",
                "trial_num": 218,
                "correct": 0
            },
            {
                "rt": 80,
                "word": "threatening",
                "responded": 1,
                "userResponse": "threatening",
                "wordStim": "hostile",
                "race": 212,
                "correctResponse": "threatening",
                "raceStim": "b06",
                "trial_num": 219,
                "correct": 1
            },
            {
                "rt": 102,
                "word": "safe",
                "responded": 1,
                "userResponse": "threatening",
                "wordStim": "safe",
                "race": 89,
                "correctResponse": "safe",
                "raceStim": "w08",
                "trial_num": 220,
                "correct": 0
            },
            {
                "rt": 114,
                "word": "safe",
                "responded": 1,
                "userResponse": "threatening",
                "wordStim": "safe",
                "race": 41,
                "correctResponse": "safe",
                "raceStim": "w04",
                "trial_num": 221,
                "correct": 0
            },
            {
                "rt": 168,
                "word": "safe",
                "responded": 1,
                "userResponse": "threatening",
                "wordStim": "safe",
                "race": 161,
                "correctResponse": "safe",
                "raceStim": "b02",
                "trial_num": 222,
                "correct": 0
            },
            {
                "rt": 122,
                "word": "safe",
                "responded": 1,
                "userResponse": "threatening",
                "wordStim": "peaceful",
                "race": 28,
                "correctResponse": "safe",
                "raceStim": "w03",
                "trial_num": 223,
                "correct": 0
            },
            {
                "rt": 137,
                "word": "safe",
                "responded": 1,
                "userResponse": "threatening",
                "wordStim": "trustworthy",
                "race": 135,
                "correctResponse": "safe",
                "raceStim": "w12",
                "trial_num": 224,
                "correct": 0
            },
            {
                "rt": 42,
                "word": "safe",
                "responded": 1,
                "userResponse": "threatening",
                "wordStim": "safe",
                "race": 77,
                "correctResponse": "safe",
                "raceStim": "w07",
                "trial_num": 225,
                "correct": 0
            },
            {
                "rt": 24,
                "word": "safe",
                "responded": 1,
                "userResponse": "threatening",
                "wordStim": "innocent",
                "race": 72,
                "correctResponse": "safe",
                "raceStim": "w07",
                "trial_num": 226,
                "correct": 0
            },
            {
                "rt": 23,
                "word": "safe",
                "responded": 1,
                "userResponse": "threatening",
                "wordStim": "friendly",
                "race": 194,
                "correctResponse": "safe",
                "raceStim": "b05",
                "trial_num": 227,
                "correct": 0
            },
            {
                "rt": 96,
                "word": "safe",
                "responded": 1,
                "userResponse": "threatening",
                "wordStim": "innocent",
                "race": 240,
                "correctResponse": "safe",
                "raceStim": "b09",
                "trial_num": 228,
                "correct": 0
            },
            {
                "rt": 60,
                "word": "safe",
                "responded": 1,
                "userResponse": "threatening",
                "wordStim": "peaceful",
                "race": 256,
                "correctResponse": "safe",
                "raceStim": "b10",
                "trial_num": 229,
                "correct": 0
            },
            {
                "rt": 15,
                "word": "safe",
                "responded": 1,
                "userResponse": "threatening",
                "wordStim": "safe",
                "race": 209,
                "correctResponse": "safe",
                "raceStim": "b06",
                "trial_num": 230,
                "correct": 0
            },
            {
                "rt": 19,
                "word": "threatening",
                "responded": 1,
                "userResponse": "threatening",
                "wordStim": "aggressive",
                "race": 93,
                "correctResponse": "threatening",
                "raceStim": "w08",
                "trial_num": 231,
                "correct": 1
            },
            {
                "rt": 22,
                "word": "safe",
                "responded": 1,
                "userResponse": "threatening",
                "wordStim": "safe",
                "race": 137,
                "correctResponse": "safe",
                "raceStim": "w12",
                "trial_num": 232,
                "correct": 0
            },
            {
                "rt": 129,
                "word": "safe",
                "responded": 1,
                "userResponse": "safe",
                "wordStim": "innocent",
                "race": 228,
                "correctResponse": "safe",
                "raceStim": "b08",
                "trial_num": 233,
                "correct": 1
            },
            {
                "rt": 45,
                "word": "threatening",
                "responded": 1,
                "userResponse": "threatening",
                "wordStim": "dangerous",
                "race": 79,
                "correctResponse": "threatening",
                "raceStim": "w07",
                "trial_num": 234,
                "correct": 1
            },
            {
                "rt": 160,
                "word": "threatening",
                "responded": 1,
                "userResponse": "threatening",
                "wordStim": "dangerous",
                "race": 127,
                "correctResponse": "threatening",
                "raceStim": "w11",
                "trial_num": 235,
                "correct": 1
            },
            {
                "rt": 134,
                "word": "threatening",
                "responded": 1,
                "userResponse": "safe",
                "wordStim": "aggressive",
                "race": 129,
                "correctResponse": "threatening",
                "raceStim": "w11",
                "trial_num": 236,
                "correct": 0
            },
            {
                "rt": 1,
                "word": "safe",
                "responded": 1,
                "userResponse": "threatening",
                "wordStim": "safe",
                "race": 17,
                "correctResponse": "safe",
                "raceStim": "w02",
                "trial_num": 237,
                "correct": 0
            },
            {
                "rt": 65,
                "word": "safe",
                "responded": 1,
                "userResponse": "threatening",
                "wordStim": "safe",
                "race": 65,
                "correctResponse": "safe",
                "raceStim": "w06",
                "trial_num": 238,
                "correct": 0
            },
            {
                "rt": 1,
                "word": "threatening",
                "responded": 1,
                "userResponse": "threatening",
                "wordStim": "dangerous",
                "race": 247,
                "correctResponse": "threatening",
                "raceStim": "b09",
                "trial_num": 239,
                "correct": 1
            },
            {
                "rt": 28,
                "word": "threatening",
                "responded": 1,
                "userResponse": "threatening",
                "wordStim": "criminal",
                "race": 94,
                "correctResponse": "threatening",
                "raceStim": "w08",
                "trial_num": 240,
                "correct": 1
            },
            {
                "rt": 69,
                "word": "safe",
                "responded": 1,
                "userResponse": "threatening",
                "wordStim": "innocent",
                "race": 84,
                "correctResponse": "safe",
                "raceStim": "w08",
                "trial_num": 241,
                "correct": 0
            },
            {
                "rt": 100,
                "word": "safe",
                "responded": 1,
                "userResponse": "safe",
                "wordStim": "friendly",
                "race": 230,
                "correctResponse": "safe",
                "raceStim": "b08",
                "trial_num": 242,
                "correct": 1
            },
            {
                "rt": 23,
                "word": "threatening",
                "responded": 1,
                "userResponse": "threatening",
                "wordStim": "violent",
                "race": 138,
                "correctResponse": "threatening",
                "raceStim": "w12",
                "trial_num": 243,
                "correct": 1
            },
            {
                "rt": 158,
                "word": "safe",
                "responded": 1,
                "userResponse": "safe",
                "wordStim": "innocent",
                "race": 204,
                "correctResponse": "safe",
                "raceStim": "b06",
                "trial_num": 244,
                "correct": 1
            },
            {
                "rt": 6,
                "word": "safe",
                "responded": 1,
                "userResponse": "threatening",
                "wordStim": "friendly",
                "race": 242,
                "correctResponse": "safe",
                "raceStim": "b09",
                "trial_num": 245,
                "correct": 0
            },
            {
                "rt": 133,
                "word": "safe",
                "responded": 1,
                "userResponse": "safe",
                "wordStim": "friendly",
                "race": 14,
                "correctResponse": "safe",
                "raceStim": "w02",
                "trial_num": 246,
                "correct": 1
            },
            {
                "rt": 108,
                "word": "threatening",
                "responded": 1,
                "userResponse": "safe",
                "wordStim": "dangerous",
                "race": 259,
                "correctResponse": "threatening",
                "raceStim": "b10",
                "trial_num": 247,
                "correct": 0
            },
            {
                "rt": 1,
                "word": "safe",
                "responded": 1,
                "userResponse": "threatening",
                "wordStim": "trustworthy",
                "race": 27,
                "correctResponse": "safe",
                "raceStim": "w03",
                "trial_num": 248,
                "correct": 0
            },
            {
                "rt": 85,
                "word": "safe",
                "responded": 1,
                "userResponse": "safe",
                "wordStim": "peaceful",
                "race": 64,
                "correctResponse": "safe",
                "raceStim": "w06",
                "trial_num": 249,
                "correct": 1
            },
            {
                "rt": 119,
                "word": "safe",
                "responded": 1,
                "userResponse": "safe",
                "wordStim": "friendly",
                "race": 254,
                "correctResponse": "safe",
                "raceStim": "b10",
                "trial_num": 250,
                "correct": 1
            },
            {
                "rt": 147,
                "word": "threatening",
                "responded": 1,
                "userResponse": "safe",
                "wordStim": "hostile",
                "race": 128,
                "correctResponse": "threatening",
                "raceStim": "w11",
                "trial_num": 251,
                "correct": 0
            },
            {
                "rt": 19,
                "word": "threatening",
                "responded": 1,
                "userResponse": "threatening",
                "wordStim": "criminal",
                "race": 250,
                "correctResponse": "threatening",
                "raceStim": "b09",
                "trial_num": 252,
                "correct": 1
            },
            {
                "rt": 65,
                "word": "safe",
                "responded": 1,
                "userResponse": "threatening",
                "wordStim": "safe",
                "race": 233,
                "correctResponse": "safe",
                "raceStim": "b08",
                "trial_num": 253,
                "correct": 0
            },
            {
                "rt": 161,
                "word": "safe",
                "responded": 1,
                "userResponse": "safe",
                "wordStim": "friendly",
                "race": 158,
                "correctResponse": "safe",
                "raceStim": "b02",
                "trial_num": 254,
                "correct": 1
            },
            {
                "rt": 122,
                "word": "safe",
                "responded": 1,
                "userResponse": "threatening",
                "wordStim": "peaceful",
                "race": 136,
                "correctResponse": "safe",
                "raceStim": "w12",
                "trial_num": 255,
                "correct": 0
            },
            {
                "rt": 161,
                "word": "safe",
                "responded": 1,
                "userResponse": "threatening",
                "wordStim": "innocent",
                "race": 0,
                "correctResponse": "safe",
                "raceStim": "w01",
                "trial_num": 256,
                "correct": 0
            },
            {
                "rt": 186,
                "word": "threatening",
                "responded": 1,
                "userResponse": "threatening",
                "wordStim": "threatening",
                "race": 35,
                "correctResponse": "threatening",
                "raceStim": "w03",
                "trial_num": 257,
                "correct": 1
            },
            {
                "rt": 120,
                "word": "threatening",
                "responded": 1,
                "userResponse": "threatening",
                "wordStim": "aggressive",
                "race": 33,
                "correctResponse": "threatening",
                "raceStim": "w03",
                "trial_num": 258,
                "correct": 1
            },
            {
                "rt": 119,
                "word": "threatening",
                "responded": 1,
                "userResponse": "threatening",
                "wordStim": "violent",
                "race": 150,
                "correctResponse": "threatening",
                "raceStim": "b01",
                "trial_num": 259,
                "correct": 1
            },
            {
                "rt": 153,
                "word": "safe",
                "responded": 1,
                "userResponse": "threatening",
                "wordStim": "friendly",
                "race": 2,
                "correctResponse": "safe",
                "raceStim": "w01",
                "trial_num": 260,
                "correct": 0
            },
            {
                "rt": 36,
                "word": "safe",
                "responded": 1,
                "userResponse": "safe",
                "wordStim": "safe",
                "race": 221,
                "correctResponse": "safe",
                "raceStim": "b07",
                "trial_num": 261,
                "correct": 1
            },
            {
                "rt": 25,
                "word": "safe",
                "responded": 1,
                "userResponse": "threatening",
                "wordStim": "trustworthy",
                "race": 159,
                "correctResponse": "safe",
                "raceStim": "b02",
                "trial_num": 262,
                "correct": 0
            },
            {
