{
    "AutoApprovalTime": "2017-11-30T20:28:36Z",
    "AssignmentId": "3LS2AMNW5FQJIEWT26G5MSTCA3MQOF",
    "WorkerId": "A2W3I2GBGDB637",
    "answers": {
        "practice_order": [],
        "trial_order": [],
        "demographicsData": [
            {
                "ReligiousAffiliation": "Atheist",
                "ReligiousAttendance": "1",
                "SES": "3",
                "Age": "48",
                "Political": "6",
                "Comments": "",
                "Education": "2",
                "Citizen": "1",
                "Male": "0",
                "Ethnicity": "1"
            }
        ],
        "faceType": 171,
        "wordType": "safe",
        "faceInput": "b03",
        "wordInput": "trustworthy",
        "keyBindings": {
            "q": "threatening",
            "p": "safe"
        },
        "data": [
            {
                "rt": 0,
                "word": "threatening",
                "responded": 0,
                "wordStim": "hostile",
                "race": 8,
                "raceStim": "w01",
                "trial_num": 1,
                "correct": 0
            },
            {
                "rt": 831,
                "word": "safe",
                "responded": 1,
                "userResponse": "safe",
                "wordStim": "safe",
                "race": 209,
                "correctResponse": "safe",
                "raceStim": "b06",
                "trial_num": 2,
                "correct": 1
            },
            {
                "rt": 0,
                "word": "safe",
                "responded": 0,
                "wordStim": "harmless",
                "race": 229,
                "raceStim": "b08",
                "trial_num": 3,
                "correct": 0
            },
            {
                "rt": 711,
                "word": "safe",
                "responded": 1,
                "userResponse": "threatening",
                "wordStim": "friendly",
                "race": 98,
                "correctResponse": "safe",
                "raceStim": "w09",
                "trial_num": 4,
                "correct": 0
            },
            {
                "rt": 817,
                "word": "safe",
                "responded": 1,
                "userResponse": "threatening",
                "wordStim": "harmless",
                "race": 97,
                "correctResponse": "safe",
                "raceStim": "w09",
                "trial_num": 5,
                "correct": 0
            },
            {
                "rt": 850,
                "word": "safe",
                "responded": 1,
                "userResponse": "safe",
                "wordStim": "trustworthy",
                "race": 183,
                "correctResponse": "safe",
                "raceStim": "b04",
                "trial_num": 6,
                "correct": 1
            },
            {
                "rt": 665,
                "word": "safe",
                "responded": 1,
                "userResponse": "safe",
                "wordStim": "peaceful",
                "race": 88,
                "correctResponse": "safe",
                "raceStim": "w08",
                "trial_num": 7,
                "correct": 1
            },
            {
                "rt": 757,
                "word": "threatening",
                "responded": 1,
                "userResponse": "threatening",
                "wordStim": "aggressive",
                "race": 33,
                "correctResponse": "threatening",
                "raceStim": "w03",
                "trial_num": 8,
                "correct": 1
            },
            {
                "rt": 815,
                "word": "threatening",
                "responded": 1,
                "userResponse": "threatening",
                "wordStim": "criminal",
                "race": 106,
                "correctResponse": "threatening",
                "raceStim": "w09",
                "trial_num": 9,
                "correct": 1
            },
            {
                "rt": 0,
                "word": "threatening",
                "responded": 0,
                "wordStim": "criminal",
                "race": 46,
                "raceStim": "w04",
                "trial_num": 10,
                "correct": 0
            },
            {
                "rt": 585,
                "word": "threatening",
                "responded": 1,
                "userResponse": "threatening",
                "wordStim": "criminal",
                "race": 94,
                "correctResponse": "threatening",
                "raceStim": "w08",
                "trial_num": 11,
                "correct": 1
            },
            {
                "rt": 535,
                "word": "threatening",
                "responded": 1,
                "userResponse": "threatening",
                "wordStim": "threatening",
                "race": 191,
                "correctResponse": "threatening",
                "raceStim": "b04",
                "trial_num": 12,
                "correct": 1
            },
            {
                "rt": 519,
                "word": "safe",
                "responded": 1,
                "userResponse": "safe",
                "wordStim": "peaceful",
                "race": 112,
                "correctResponse": "safe",
                "raceStim": "w10",
                "trial_num": 13,
                "correct": 1
            },
            {
                "rt": 632,
                "word": "threatening",
                "responded": 1,
                "userResponse": "threatening",
                "wordStim": "criminal",
                "race": 250,
                "correctResponse": "threatening",
                "raceStim": "b09",
                "trial_num": 14,
                "correct": 1
            },
            {
                "rt": 533,
                "word": "safe",
                "responded": 1,
                "userResponse": "safe",
                "wordStim": "safe",
                "race": 89,
                "correctResponse": "safe",
                "raceStim": "w08",
                "trial_num": 15,
                "correct": 1
            },
            {
                "rt": 582,
                "word": "threatening",
                "responded": 1,
                "userResponse": "threatening",
                "wordStim": "aggressive",
                "race": 165,
                "correctResponse": "threatening",
                "raceStim": "b02",
                "trial_num": 16,
                "correct": 1
            },
            {
                "rt": 593,
                "word": "threatening",
                "responded": 1,
                "userResponse": "threatening",
                "wordStim": "aggressive",
                "race": 285,
                "correctResponse": "threatening",
                "raceStim": "b12",
                "trial_num": 17,
                "correct": 1
            },
            {
                "rt": 454,
                "word": "threatening",
                "responded": 1,
                "userResponse": "threatening",
                "wordStim": "aggressive",
                "race": 249,
                "correctResponse": "threatening",
                "raceStim": "b09",
                "trial_num": 18,
                "correct": 1
            },
            {
                "rt": 475,
                "word": "safe",
                "responded": 1,
                "userResponse": "threatening",
                "wordStim": "safe",
                "race": 233,
                "correctResponse": "safe",
                "raceStim": "b08",
                "trial_num": 19,
                "correct": 0
            },
            {
                "rt": 648,
                "word": "safe",
                "responded": 1,
                "userResponse": "safe",
                "wordStim": "innocent",
                "race": 156,
                "correctResponse": "safe",
                "raceStim": "b02",
                "trial_num": 20,
                "correct": 1
            },
            {
                "rt": 485,
                "word": "safe",
                "responded": 1,
                "userResponse": "safe",
                "wordStim": "innocent",
                "race": 36,
                "correctResponse": "safe",
                "raceStim": "w04",
                "trial_num": 21,
                "correct": 1
            },
            {
                "rt": 543,
                "word": "threatening",
                "responded": 1,
                "userResponse": "safe",
                "wordStim": "hostile",
                "race": 176,
                "correctResponse": "threatening",
                "raceStim": "b03",
                "trial_num": 22,
                "correct": 0
            },
            {
                "rt": 585,
                "word": "threatening",
                "responded": 1,
                "userResponse": "threatening",
                "wordStim": "dangerous",
                "race": 211,
                "correctResponse": "threatening",
                "raceStim": "b06",
                "trial_num": 23,
                "correct": 1
            },
            {
                "rt": 618,
                "word": "safe",
                "responded": 1,
                "userResponse": "safe",
                "wordStim": "peaceful",
                "race": 184,
                "correctResponse": "safe",
                "raceStim": "b04",
                "trial_num": 24,
                "correct": 1
            },
            {
                "rt": 638,
                "word": "safe",
                "responded": 1,
                "userResponse": "safe",
                "wordStim": "innocent",
                "race": 72,
                "correctResponse": "safe",
                "raceStim": "w07",
                "trial_num": 25,
                "correct": 1
            },
            {
                "rt": 574,
                "word": "threatening",
                "responded": 1,
                "userResponse": "threatening",
                "wordStim": "criminal",
                "race": 178,
                "correctResponse": "threatening",
                "raceStim": "b03",
                "trial_num": 26,
                "correct": 1
            },
            {
                "rt": 760,
                "word": "threatening",
                "responded": 1,
                "userResponse": "threatening",
                "wordStim": "dangerous",
                "race": 31,
                "correctResponse": "threatening",
                "raceStim": "w03",
                "trial_num": 27,
                "correct": 1
            },
            {
                "rt": 581,
                "word": "threatening",
                "responded": 1,
                "userResponse": "threatening",
                "wordStim": "violent",
                "race": 198,
                "correctResponse": "threatening",
                "raceStim": "b05",
                "trial_num": 28,
                "correct": 1
            },
            {
                "rt": 641,
                "word": "safe",
                "responded": 1,
                "userResponse": "safe",
                "wordStim": "harmless",
                "race": 13,
                "correctResponse": "safe",
                "raceStim": "w02",
                "trial_num": 29,
                "correct": 1
            },
            {
                "rt": 592,
                "word": "threatening",
                "responded": 1,
                "userResponse": "threatening",
                "wordStim": "violent",
                "race": 270,
                "correctResponse": "threatening",
                "raceStim": "b11",
                "trial_num": 30,
                "correct": 1
            },
            {
                "rt": 523,
                "word": "threatening",
                "responded": 1,
                "userResponse": "safe",
                "wordStim": "hostile",
                "race": 44,
                "correctResponse": "threatening",
                "raceStim": "w04",
                "trial_num": 31,
                "correct": 0
            },
            {
                "rt": 809,
                "word": "safe",
                "responded": 1,
                "userResponse": "safe",
                "wordStim": "trustworthy",
                "race": 267,
                "correctResponse": "safe",
                "raceStim": "b11",
                "trial_num": 32,
                "correct": 1
            },
            {
                "rt": 733,
                "word": "safe",
                "responded": 1,
                "userResponse": "safe",
                "wordStim": "innocent",
                "race": 108,
                "correctResponse": "safe",
                "raceStim": "w10",
                "trial_num": 33,
                "correct": 1
            },
            {
                "rt": 521,
                "word": "safe",
                "responded": 1,
                "userResponse": "safe",
                "wordStim": "innocent",
                "race": 168,
                "correctResponse": "safe",
                "raceStim": "b03",
                "trial_num": 34,
                "correct": 1
            },
            {
                "rt": 509,
                "word": "threatening",
                "responded": 1,
                "userResponse": "threatening",
                "wordStim": "violent",
                "race": 186,
                "correctResponse": "threatening",
                "raceStim": "b04",
                "trial_num": 35,
                "correct": 1
            },
            {
                "rt": 506,
                "word": "threatening",
                "responded": 1,
                "userResponse": "threatening",
                "wordStim": "violent",
                "race": 42,
                "correctResponse": "threatening",
                "raceStim": "w04",
                "trial_num": 36,
                "correct": 1
            },
            {
                "rt": 561,
                "word": "threatening",
                "responded": 1,
                "userResponse": "threatening",
                "wordStim": "threatening",
                "race": 131,
                "correctResponse": "threatening",
                "raceStim": "w11",
                "trial_num": 37,
                "correct": 1
            },
            {
                "rt": 679,
                "word": "safe",
                "responded": 1,
                "userResponse": "safe",
                "wordStim": "trustworthy",
                "race": 75,
                "correctResponse": "safe",
                "raceStim": "w07",
                "trial_num": 38,
                "correct": 1
            },
            {
                "rt": 641,
                "word": "threatening",
                "responded": 1,
                "userResponse": "threatening",
                "wordStim": "hostile",
                "race": 128,
                "correctResponse": "threatening",
                "raceStim": "w11",
                "trial_num": 39,
                "correct": 1
            },
            {
                "rt": 585,
                "word": "threatening",
                "responded": 1,
                "userResponse": "threatening",
                "wordStim": "threatening",
                "race": 155,
                "correctResponse": "threatening",
                "raceStim": "b01",
                "trial_num": 40,
                "correct": 1
            },
            {
                "rt": 632,
                "word": "safe",
                "responded": 1,
                "userResponse": "safe",
                "wordStim": "safe",
                "race": 281,
                "correctResponse": "safe",
                "raceStim": "b12",
                "trial_num": 41,
                "correct": 1
            },
            {
                "rt": 654,
                "word": "threatening",
                "responded": 1,
                "userResponse": "safe",
                "wordStim": "dangerous",
                "race": 43,
                "correctResponse": "threatening",
                "raceStim": "w04",
                "trial_num": 42,
                "correct": 0
            },
            {
                "rt": 616,
                "word": "threatening",
                "responded": 1,
                "userResponse": "safe",
                "wordStim": "criminal",
                "race": 166,
                "correctResponse": "threatening",
                "raceStim": "b02",
                "trial_num": 43,
                "correct": 0
            },
            {
                "rt": 717,
                "word": "safe",
                "responded": 1,
                "userResponse": "safe",
                "wordStim": "innocent",
                "race": 144,
                "correctResponse": "safe",
                "raceStim": "b01",
                "trial_num": 44,
                "correct": 1
            },
            {
                "rt": 580,
                "word": "threatening",
                "responded": 1,
                "userResponse": "threatening",
                "wordStim": "dangerous",
                "race": 235,
                "correctResponse": "threatening",
                "raceStim": "b08",
                "trial_num": 45,
                "correct": 1
            },
            {
                "rt": 737,
                "word": "safe",
                "responded": 1,
                "userResponse": "safe",
                "wordStim": "harmless",
                "race": 193,
                "correctResponse": "safe",
                "raceStim": "b05",
                "trial_num": 46,
                "correct": 1
            },
            {
                "rt": 657,
                "word": "threatening",
                "responded": 1,
                "userResponse": "threatening",
                "wordStim": "criminal",
                "race": 262,
                "correctResponse": "threatening",
                "raceStim": "b10",
                "trial_num": 47,
                "correct": 1
            },
            {
                "rt": 543,
                "word": "threatening",
                "responded": 1,
                "userResponse": "threatening",
                "wordStim": "hostile",
                "race": 104,
                "correctResponse": "threatening",
                "raceStim": "w09",
                "trial_num": 48,
                "correct": 1
            },
            {
                "rt": 825,
                "word": "safe",
                "responded": 1,
                "userResponse": "safe",
                "wordStim": "safe",
                "race": 53,
                "correctResponse": "safe",
                "raceStim": "w05",
                "trial_num": 49,
                "correct": 1
            },
            {
                "rt": 734,
                "word": "threatening",
                "responded": 1,
                "userResponse": "threatening",
                "wordStim": "aggressive",
                "race": 21,
                "correctResponse": "threatening",
                "raceStim": "w02",
                "trial_num": 50,
                "correct": 1
            },
            {
                "rt": 558,
                "word": "threatening",
                "responded": 1,
                "userResponse": "threatening",
                "wordStim": "dangerous",
                "race": 163,
                "correctResponse": "threatening",
                "raceStim": "b02",
                "trial_num": 51,
                "correct": 1
            },
            {
                "rt": 570,
                "word": "safe",
                "responded": 1,
                "userResponse": "safe",
                "wordStim": "trustworthy",
                "race": 99,
                "correctResponse": "safe",
                "raceStim": "w09",
                "trial_num": 52,
                "correct": 1
            },
            {
                "rt": 607,
                "word": "safe",
                "responded": 1,
                "userResponse": "safe",
                "wordStim": "friendly",
                "race": 2,
                "correctResponse": "safe",
                "raceStim": "w01",
                "trial_num": 53,
                "correct": 1
            },
            {
                "rt": 679,
                "word": "safe",
                "responded": 1,
                "userResponse": "safe",
                "wordStim": "peaceful",
                "race": 220,
                "correctResponse": "safe",
                "raceStim": "b07",
                "trial_num": 54,
                "correct": 1
            },
            {
                "rt": 582,
                "word": "safe",
                "responded": 1,
                "userResponse": "safe",
                "wordStim": "harmless",
                "race": 85,
                "correctResponse": "safe",
                "raceStim": "w08",
                "trial_num": 55,
                "correct": 1
            },
            {
                "rt": 576,
                "word": "threatening",
                "responded": 1,
                "userResponse": "threatening",
                "wordStim": "criminal",
                "race": 118,
                "correctResponse": "threatening",
                "raceStim": "w10",
                "trial_num": 56,
                "correct": 1
            },
            {
                "rt": 568,
                "word": "threatening",
                "responded": 1,
                "userResponse": "threatening",
                "wordStim": "threatening",
                "race": 47,
                "correctResponse": "threatening",
                "raceStim": "w04",
                "trial_num": 57,
                "correct": 1
            },
            {
                "rt": 477,
                "word": "threatening",
                "responded": 1,
                "userResponse": "threatening",
                "wordStim": "threatening",
                "race": 167,
                "correctResponse": "threatening",
                "raceStim": "b02",
                "trial_num": 58,
                "correct": 1
            },
            {
                "rt": 525,
                "word": "threatening",
                "responded": 1,
                "userResponse": "threatening",
                "wordStim": "violent",
                "race": 66,
                "correctResponse": "threatening",
                "raceStim": "w06",
                "trial_num": 59,
                "correct": 1
            },
            {
                "rt": 636,
                "word": "threatening",
                "responded": 1,
                "userResponse": "threatening",
                "wordStim": "threatening",
                "race": 83,
                "correctResponse": "threatening",
                "raceStim": "w07",
                "trial_num": 60,
                "correct": 1
            },
            {
                "rt": 576,
                "word": "threatening",
                "responded": 1,
                "userResponse": "threatening",
                "wordStim": "dangerous",
                "race": 187,
                "correctResponse": "threatening",
                "raceStim": "b04",
                "trial_num": 61,
                "correct": 1
            },
            {
                "rt": 575,
                "word": "threatening",
                "responded": 1,
                "userResponse": "threatening",
                "wordStim": "aggressive",
                "race": 69,
                "correctResponse": "threatening",
                "raceStim": "w06",
                "trial_num": 62,
                "correct": 1
            },
            {
                "rt": 526,
                "word": "threatening",
                "responded": 1,
                "userResponse": "threatening",
                "wordStim": "threatening",
                "race": 275,
                "correctResponse": "threatening",
                "raceStim": "b11",
                "trial_num": 63,
                "correct": 1
            },
            {
                "rt": 545,
                "word": "threatening",
                "responded": 1,
                "userResponse": "threatening",
                "wordStim": "criminal",
                "race": 142,
                "correctResponse": "threatening",
                "raceStim": "w12",
                "trial_num": 64,
                "correct": 1
            },
            {
                "rt": 379,
                "word": "threatening",
                "responded": 1,
                "userResponse": "threatening",
                "wordStim": "threatening",
                "race": 23,
                "correctResponse": "threatening",
                "raceStim": "w02",
                "trial_num": 65,
                "correct": 1
            },
            {
                "rt": 407,
                "word": "threatening",
                "responded": 1,
                "userResponse": "threatening",
                "wordStim": "threatening",
                "race": 59,
                "correctResponse": "threatening",
                "raceStim": "w05",
                "trial_num": 66,
                "correct": 1
            },
            {
                "rt": 367,
                "word": "threatening",
                "responded": 1,
                "userResponse": "threatening",
                "wordStim": "threatening",
                "race": 179,
                "correctResponse": "threatening",
                "raceStim": "b03",
                "trial_num": 67,
                "correct": 1
            },
            {
                "rt": 356,
                "word": "safe",
                "responded": 1,
                "userResponse": "threatening",
                "wordStim": "trustworthy",
                "race": 279,
                "correctResponse": "safe",
                "raceStim": "b12",
                "trial_num": 68,
                "correct": 0
            },
            {
                "rt": 688,
                "word": "threatening",
                "responded": 1,
                "userResponse": "threatening",
                "wordStim": "threatening",
                "race": 263,
                "correctResponse": "threatening",
                "raceStim": "b10",
                "trial_num": 69,
                "correct": 1
            },
            {
                "rt": 423,
                "word": "safe",
                "responded": 1,
                "userResponse": "safe",
                "wordStim": "safe",
                "race": 113,
                "correctResponse": "safe",
                "raceStim": "w10",
                "trial_num": 70,
                "correct": 1
            },
            {
                "rt": 463,
                "word": "safe",
                "responded": 1,
                "userResponse": "threatening",
                "wordStim": "harmless",
                "race": 133,
                "correctResponse": "safe",
                "raceStim": "w12",
                "trial_num": 71,
                "correct": 0
            },
            {
                "rt": 583,
                "word": "safe",
                "responded": 1,
                "userResponse": "safe",
                "wordStim": "innocent",
                "race": 276,
                "correctResponse": "safe",
                "raceStim": "b12",
                "trial_num": 72,
                "correct": 1
            },
            {
                "rt": 626,
                "word": "threatening",
                "responded": 1,
                "userResponse": "threatening",
                "wordStim": "dangerous",
                "race": 151,
                "correctResponse": "threatening",
                "raceStim": "b01",
                "trial_num": 73,
                "correct": 1
            },
            {
                "rt": 540,
                "word": "safe",
                "responded": 1,
                "userResponse": "safe",
                "wordStim": "innocent",
                "race": 0,
                "correctResponse": "safe",
                "raceStim": "w01",
                "trial_num": 74,
                "correct": 1
            },
            {
                "rt": 721,
                "word": "safe",
                "responded": 1,
                "userResponse": "safe",
                "wordStim": "trustworthy",
                "race": 219,
                "correctResponse": "safe",
                "raceStim": "b07",
                "trial_num": 75,
                "correct": 1
            },
            {
                "rt": 641,
                "word": "threatening",
                "responded": 1,
                "userResponse": "threatening",
                "wordStim": "violent",
                "race": 234,
                "correctResponse": "threatening",
                "raceStim": "b08",
                "trial_num": 76,
                "correct": 1
            },
            {
                "rt": 645,
                "word": "safe",
                "responded": 1,
                "userResponse": "safe",
                "wordStim": "harmless",
                "race": 49,
                "correctResponse": "safe",
                "raceStim": "w05",
                "trial_num": 77,
                "correct": 1
            },
            {
                "rt": 567,
                "word": "threatening",
                "responded": 1,
                "userResponse": "safe",
                "wordStim": "hostile",
                "race": 248,
                "correctResponse": "threatening",
                "raceStim": "b09",
                "trial_num": 78,
                "correct": 0
            },
            {
                "rt": 729,
                "word": "threatening",
                "responded": 1,
                "userResponse": "threatening",
                "wordStim": "hostile",
                "race": 32,
                "correctResponse": "threatening",
                "raceStim": "w03",
                "trial_num": 79,
                "correct": 1
            },
            {
                "rt": 681,
                "word": "threatening",
                "responded": 1,
                "userResponse": "threatening",
                "wordStim": "violent",
                "race": 150,
                "correctResponse": "threatening",
                "raceStim": "b01",
                "trial_num": 80,
                "correct": 1
            },
            {
                "rt": 681,
                "word": "safe",
                "responded": 1,
                "userResponse": "safe",
                "wordStim": "trustworthy",
                "race": 135,
                "correctResponse": "safe",
                "raceStim": "w12",
                "trial_num": 81,
                "correct": 1
            },
            {
                "rt": 654,
                "word": "threatening",
                "responded": 1,
                "userResponse": "threatening",
                "wordStim": "threatening",
                "race": 215,
                "correctResponse": "threatening",
                "raceStim": "b06",
                "trial_num": 82,
                "correct": 1
            },
            {
                "rt": 926,
                "word": "safe",
                "responded": 1,
                "userResponse": "safe",
                "wordStim": "peaceful",
                "race": 244,
                "correctResponse": "safe",
                "raceStim": "b09",
                "trial_num": 83,
                "correct": 1
            },
            {
                "rt": 703,
                "word": "threatening",
                "responded": 1,
                "userResponse": "safe",
                "wordStim": "threatening",
                "race": 107,
                "correctResponse": "threatening",
                "raceStim": "w09",
                "trial_num": 84,
                "correct": 0
            },
            {
                "rt": 721,
                "word": "safe",
                "responded": 1,
                "userResponse": "safe",
                "wordStim": "safe",
                "race": 17,
                "correctResponse": "safe",
                "raceStim": "w02",
                "trial_num": 85,
                "correct": 1
            },
            {
                "rt": 599,
                "word": "threatening",
                "responded": 1,
                "userResponse": "threatening",
                "wordStim": "hostile",
                "race": 80,
                "correctResponse": "threatening",
                "raceStim": "w07",
                "trial_num": 86,
                "correct": 1
            },
            {
                "rt": 655,
                "word": "safe",
                "responded": 1,
                "userResponse": "safe",
                "wordStim": "friendly",
                "race": 230,
                "correctResponse": "safe",
                "raceStim": "b08",
                "trial_num": 87,
                "correct": 1
            },
            {
                "rt": 768,
                "word": "threatening",
                "responded": 1,
                "userResponse": "threatening",
                "wordStim": "hostile",
                "race": 260,
                "correctResponse": "threatening",
                "raceStim": "b10",
                "trial_num": 88,
                "correct": 1
            },
            {
                "rt": 566,
                "word": "safe",
                "responded": 1,
                "userResponse": "safe",
                "wordStim": "friendly",
                "race": 62,
                "correctResponse": "safe",
                "raceStim": "w06",
                "trial_num": 89,
                "correct": 1
            },
            {
                "rt": 549,
                "word": "safe",
                "responded": 1,
                "userResponse": "safe",
                "wordStim": "friendly",
                "race": 146,
                "correctResponse": "safe",
                "raceStim": "b01",
                "trial_num": 90,
                "correct": 1
            },
            {
                "rt": 569,
                "word": "threatening",
                "responded": 1,
                "userResponse": "threatening",
                "wordStim": "aggressive",
                "race": 213,
                "correctResponse": "threatening",
                "raceStim": "b06",
                "trial_num": 91,
                "correct": 1
            },
            {
                "rt": 607,
                "word": "safe",
                "responded": 1,
                "userResponse": "safe",
                "wordStim": "trustworthy",
                "race": 3,
                "correctResponse": "safe",
                "raceStim": "w01",
                "trial_num": 92,
                "correct": 1
            },
            {
                "rt": 654,
                "word": "threatening",
                "responded": 1,
                "userResponse": "safe",
                "wordStim": "hostile",
                "race": 92,
                "correctResponse": "threatening",
                "raceStim": "w08",
                "trial_num": 93,
                "correct": 0
            },
            {
                "rt": 624,
                "word": "threatening",
                "responded": 1,
                "userResponse": "threatening",
                "wordStim": "violent",
                "race": 78,
                "correctResponse": "threatening",
                "raceStim": "w07",
                "trial_num": 94,
                "correct": 1
            },
            {
                "rt": 620,
                "word": "safe",
                "responded": 1,
                "userResponse": "safe",
                "wordStim": "friendly",
                "race": 254,
                "correctResponse": "safe",
                "raceStim": "b10",
                "trial_num": 95,
                "correct": 1
            },
            {
                "rt": 610,
                "word": "safe",
                "responded": 1,
                "userResponse": "safe",
                "wordStim": "peaceful",
                "race": 172,
                "correctResponse": "safe",
                "raceStim": "b03",
                "trial_num": 96,
                "correct": 1
            },
            {
                "rt": 767,
                "word": "safe",
                "responded": 1,
                "userResponse": "safe",
                "wordStim": "harmless",
                "race": 277,
                "correctResponse": "safe",
                "raceStim": "b12",
                "trial_num": 97,
                "correct": 1
            },
            {
                "rt": 536,
                "word": "safe",
                "responded": 1,
                "userResponse": "safe",
                "wordStim": "trustworthy",
                "race": 123,
                "correctResponse": "safe",
                "raceStim": "w11",
                "trial_num": 98,
                "correct": 1
            },
            {
                "rt": 601,
                "word": "safe",
                "responded": 1,
                "userResponse": "safe",
                "wordStim": "friendly",
                "race": 122,
                "correctResponse": "safe",
                "raceStim": "w11",
                "trial_num": 99,
                "correct": 1
            },
            {
                "rt": 608,
                "word": "threatening",
                "responded": 1,
                "userResponse": "threatening",
                "wordStim": "violent",
                "race": 90,
                "correctResponse": "threatening",
                "raceStim": "w08",
                "trial_num": 100,
                "correct": 1
            },
            {
                "rt": 565,
                "word": "threatening",
                "responded": 1,
                "userResponse": "threatening",
                "wordStim": "aggressive",
                "race": 129,
                "correctResponse": "threatening",
                "raceStim": "w11",
                "trial_num": 101,
                "correct": 1
            },
            {
                "rt": 536,
                "word": "threatening",
                "responded": 1,
                "userResponse": "threatening",
                "wordStim": "hostile",
                "race": 188,
                "correctResponse": "threatening",
                "raceStim": "b04",
                "trial_num": 102,
                "correct": 1
            },
            {
                "rt": 703,
                "word": "threatening",
                "responded": 1,
                "userResponse": "threatening",
                "wordStim": "dangerous",
                "race": 19,
                "correctResponse": "threatening",
                "raceStim": "w02",
                "trial_num": 103,
                "correct": 1
            },
            {
                "rt": 631,
                "word": "safe",
                "responded": 1,
                "userResponse": "safe",
                "wordStim": "friendly",
                "race": 86,
                "correctResponse": "safe",
                "raceStim": "w08",
                "trial_num": 104,
                "correct": 1
            },
            {
                "rt": 703,
                "word": "threatening",
                "responded": 1,
                "userResponse": "threatening",
                "wordStim": "aggressive",
                "race": 273,
                "correctResponse": "threatening",
                "raceStim": "b11",
                "trial_num": 105,
                "correct": 1
            },
            {
                "rt": 466,
                "word": "threatening",
                "responded": 1,
                "userResponse": "threatening",
                "wordStim": "aggressive",
                "race": 57,
                "correctResponse": "threatening",
                "raceStim": "w05",
                "trial_num": 106,
                "correct": 1
            },
            {
                "rt": 615,
                "word": "threatening",
                "responded": 1,
                "userResponse": "threatening",
                "wordStim": "hostile",
                "race": 284,
                "correctResponse": "threatening",
                "raceStim": "b12",
                "trial_num": 107,
                "correct": 1
            },
            {
                "rt": 640,
                "word": "threatening",
                "responded": 1,
                "userResponse": "threatening",
                "wordStim": "criminal",
                "race": 130,
                "correctResponse": "threatening",
                "raceStim": "w11",
                "trial_num": 108,
                "correct": 1
            },
            {
                "rt": 545,
                "word": "safe",
                "responded": 1,
                "userResponse": "safe",
                "wordStim": "safe",
                "race": 41,
                "correctResponse": "safe",
                "raceStim": "w04",
                "trial_num": 109,
                "correct": 1
            },
            {
                "rt": 667,
                "word": "threatening",
                "responded": 1,
                "userResponse": "threatening",
                "wordStim": "criminal",
                "race": 22,
                "correctResponse": "threatening",
                "raceStim": "w02",
                "trial_num": 110,
                "correct": 1
            },
            {
                "rt": 591,
                "word": "threatening",
                "responded": 1,
                "userResponse": "threatening",
                "wordStim": "dangerous",
                "race": 259,
                "correctResponse": "threatening",
                "raceStim": "b10",
                "trial_num": 111,
                "correct": 1
            },
            {
                "rt": 689,
                "word": "safe",
                "responded": 1,
                "userResponse": "threatening",
                "wordStim": "innocent",
                "race": 240,
                "correctResponse": "safe",
                "raceStim": "b09",
                "trial_num": 112,
                "correct": 0
            },
            {
                "rt": 551,
                "word": "safe",
                "responded": 1,
                "userResponse": "safe",
                "wordStim": "peaceful",
                "race": 268,
                "correctResponse": "safe",
                "raceStim": "b11",
                "trial_num": 113,
                "correct": 1
            },
            {
                "rt": 639,
                "word": "safe",
                "responded": 1,
                "userResponse": "threatening",
                "wordStim": "harmless",
                "race": 181,
                "correctResponse": "safe",
                "raceStim": "b04",
                "trial_num": 114,
                "correct": 0
            },
            {
                "rt": 875,
                "word": "threatening",
                "responded": 1,
                "userResponse": "threatening",
                "wordStim": "threatening",
                "race": 119,
                "correctResponse": "threatening",
                "raceStim": "w10",
                "trial_num": 115,
                "correct": 1
            },
            {
                "rt": 638,
                "word": "threatening",
                "responded": 1,
                "userResponse": "threatening",
                "wordStim": "violent",
                "race": 138,
                "correctResponse": "threatening",
                "raceStim": "w12",
                "trial_num": 116,
                "correct": 1
            },
            {
                "rt": 671,
                "word": "safe",
                "responded": 1,
                "userResponse": "safe",
                "wordStim": "peaceful",
                "race": 208,
                "correctResponse": "safe",
                "raceStim": "b06",
                "trial_num": 117,
                "correct": 1
            },
            {
                "rt": 535,
                "word": "safe",
                "responded": 1,
                "userResponse": "safe",
                "wordStim": "friendly",
                "race": 74,
                "correctResponse": "safe",
                "raceStim": "w07",
                "trial_num": 118,
                "correct": 1
            },
            {
                "rt": 596,
                "word": "threatening",
                "responded": 1,
                "userResponse": "threatening",
                "wordStim": "aggressive",
                "race": 225,
                "correctResponse": "threatening",
                "raceStim": "b07",
                "trial_num": 119,
                "correct": 1
            },
            {
                "rt": 674,
                "word": "safe",
                "responded": 1,
                "userResponse": "safe",
                "wordStim": "peaceful",
                "race": 136,
                "correctResponse": "safe",
                "raceStim": "w12",
                "trial_num": 120,
                "correct": 1
            },
            {
                "rt": 641,
                "word": "safe",
                "responded": 1,
                "userResponse": "safe",
                "wordStim": "peaceful",
                "race": 148,
                "correctResponse": "safe",
                "raceStim": "b01",
                "trial_num": 121,
                "correct": 1
            },
            {
                "rt": 648,
                "word": "threatening",
                "responded": 1,
                "userResponse": "threatening",
                "wordStim": "hostile",
                "race": 272,
                "correctResponse": "threatening",
                "raceStim": "b11",
                "trial_num": 122,
                "correct": 1
            },
            {
                "rt": 535,
                "word": "safe",
                "responded": 1,
                "userResponse": "safe",
                "wordStim": "safe",
                "race": 101,
                "correctResponse": "safe",
                "raceStim": "w09",
                "trial_num": 123,
                "correct": 1
            },
            {
                "rt": 641,
                "word": "safe",
                "responded": 1,
                "userResponse": "safe",
                "wordStim": "trustworthy",
                "race": 231,
                "correctResponse": "safe",
                "raceStim": "b08",
                "trial_num": 124,
                "correct": 1
            },
            {
                "rt": 568,
                "word": "threatening",
                "responded": 1,
                "userResponse": "threatening",
                "wordStim": "hostile",
                "race": 140,
                "correctResponse": "threatening",
                "raceStim": "w12",
                "trial_num": 125,
                "correct": 1
            },
            {
                "rt": 772,
                "word": "safe",
                "responded": 1,
                "userResponse": "safe",
                "wordStim": "peaceful",
                "race": 16,
                "correctResponse": "safe",
                "raceStim": "w02",
                "trial_num": 126,
                "correct": 1
            },
            {
                "rt": 619,
                "word": "threatening",
                "responded": 1,
                "userResponse": "threatening",
                "wordStim": "aggressive",
                "race": 105,
                "correctResponse": "threatening",
                "raceStim": "w09",
                "trial_num": 127,
                "correct": 1
            },
            {
                "rt": 595,
                "word": "threatening",
                "responded": 1,
                "userResponse": "threatening",
                "wordStim": "criminal",
                "race": 214,
                "correctResponse": "threatening",
                "raceStim": "b06",
                "trial_num": 128,
                "correct": 1
            },
            {
                "rt": 621,
                "word": "threatening",
                "responded": 1,
                "userResponse": "threatening",
                "wordStim": "aggressive",
                "race": 201,
                "correctResponse": "threatening",
                "raceStim": "b05",
                "trial_num": 129,
                "correct": 1
            },
            {
                "rt": 644,
                "word": "threatening",
                "responded": 1,
                "userResponse": "threatening",
                "wordStim": "criminal",
                "race": 226,
                "correctResponse": "threatening",
                "raceStim": "b07",
                "trial_num": 130,
                "correct": 1
            },
            {
                "rt": 427,
                "word": "threatening",
                "responded": 1,
                "userResponse": "safe",
                "wordStim": "aggressive",
                "race": 45,
                "correctResponse": "threatening",
                "raceStim": "w04",
                "trial_num": 131,
                "correct": 0
            },
            {
                "rt": 921,
                "word": "threatening",
                "responded": 1,
                "userResponse": "threatening",
                "wordStim": "criminal",
                "race": 58,
                "correctResponse": "threatening",
                "raceStim": "w05",
                "trial_num": 132,
                "correct": 1
            },
            {
                "rt": 748,
                "word": "threatening",
                "responded": 1,
                "userResponse": "threatening",
                "wordStim": "threatening",
                "race": 227,
                "correctResponse": "threatening",
                "raceStim": "b07",
                "trial_num": 133,
                "correct": 1
            },
            {
                "rt": 764,
                "word": "safe",
                "responded": 1,
                "userResponse": "safe",
                "wordStim": "trustworthy",
                "race": 195,
                "correctResponse": "safe",
                "raceStim": "b05",
                "trial_num": 134,
                "correct": 1
            },
            {
                "rt": 679,
                "word": "safe",
                "responded": 1,
                "userResponse": "safe",
                "wordStim": "safe",
                "race": 257,
                "correctResponse": "safe",
                "raceStim": "b10",
                "trial_num": 135,
                "correct": 1
            },
            {
                "rt": 601,
                "word": "threatening",
                "responded": 1,
                "userResponse": "threatening",
                "wordStim": "dangerous",
                "race": 283,
                "correctResponse": "threatening",
                "raceStim": "b12",
                "trial_num": 136,
                "correct": 1
            },
            {
                "rt": 567,
                "word": "safe",
                "responded": 1,
                "userResponse": "safe",
                "wordStim": "peaceful",
                "race": 100,
                "correctResponse": "safe",
                "raceStim": "w09",
                "trial_num": 137,
                "correct": 1
            },
            {
                "rt": 641,
                "word": "threatening",
                "responded": 1,
                "userResponse": "threatening",
                "wordStim": "criminal",
                "race": 70,
                "correctResponse": "threatening",
                "raceStim": "w06",
                "trial_num": 138,
                "correct": 1
            },
            {
                "rt": 608,
                "word": "threatening",
                "responded": 1,
                "userResponse": "threatening",
                "wordStim": "aggressive",
                "race": 189,
                "correctResponse": "threatening",
                "raceStim": "b04",
                "trial_num": 139,
                "correct": 1
            },
            {
                "rt": 584,
                "word": "threatening",
                "responded": 1,
                "userResponse": "threatening",
                "wordStim": "dangerous",
                "race": 223,
                "correctResponse": "threatening",
                "raceStim": "b07",
                "trial_num": 140,
                "correct": 1
            },
            {
                "rt": 542,
                "word": "threatening",
                "responded": 1,
                "userResponse": "threatening",
                "wordStim": "dangerous",
                "race": 175,
                "correctResponse": "threatening",
                "raceStim": "b03",
                "trial_num": 141,
                "correct": 1
            },
            {
                "rt": 650,
                "word": "safe",
                "responded": 1,
                "userResponse": "safe",
                "wordStim": "innocent",
                "race": 228,
                "correctResponse": "safe",
                "raceStim": "b08",
                "trial_num": 142,
                "correct": 1
            },
            {
                "rt": 568,
                "word": "safe",
                "responded": 1,
                "userResponse": "safe",
                "wordStim": "friendly",
                "race": 26,
                "correctResponse": "safe",
                "raceStim": "w03",
                "trial_num": 143,
                "correct": 1
            },
            {
                "rt": 632,
                "word": "safe",
                "responded": 1,
                "userResponse": "safe",
                "wordStim": "safe",
                "race": 149,
                "correctResponse": "safe",
                "raceStim": "b01",
                "trial_num": 144,
                "correct": 1
            },
            {
                "rt": 726,
                "word": "threatening",
                "responded": 1,
                "userResponse": "threatening",
                "wordStim": "violent",
                "race": 258,
                "correctResponse": "threatening",
                "raceStim": "b10",
                "trial_num": 145,
                "correct": 1
            },
            {
                "rt": 654,
                "word": "safe",
                "responded": 1,
                "userResponse": "safe",
                "wordStim": "innocent",
                "race": 96,
                "correctResponse": "safe",
                "raceStim": "w09",
                "trial_num": 146,
                "correct": 1
            },
            {
                "rt": 585,
                "word": "safe",
                "responded": 1,
                "userResponse": "safe",
                "wordStim": "friendly",
                "race": 182,
                "correctResponse": "safe",
                "raceStim": "b04",
                "trial_num": 147,
                "correct": 1
            },
            {
                "rt": 511,
                "word": "safe",
                "responded": 1,
                "userResponse": "safe",
                "wordStim": "safe",
                "race": 269,
                "correctResponse": "safe",
                "raceStim": "b11",
                "trial_num": 148,
                "correct": 1
            },
            {
                "rt": 543,
                "word": "safe",
                "responded": 1,
                "userResponse": "safe",
                "wordStim": "friendly",
                "race": 14,
                "correctResponse": "safe",
                "raceStim": "w02",
                "trial_num": 149,
                "correct": 1
            },
            {
                "rt": 657,
                "word": "threatening",
                "responded": 1,
                "userResponse": "threatening",
                "wordStim": "threatening",
                "race": 11,
                "correctResponse": "threatening",
                "raceStim": "w01",
                "trial_num": 150,
                "correct": 1
            },
            {
                "rt": 614,
                "word": "safe",
                "responded": 1,
                "userResponse": "safe",
                "wordStim": "innocent",
                "race": 120,
                "correctResponse": "safe",
                "raceStim": "w11",
                "trial_num": 151,
                "correct": 1
            },
            {
                "rt": 528,
                "word": "threatening",
                "responded": 1,
                "userResponse": "threatening",
                "wordStim": "violent",
                "race": 114,
                "correctResponse": "threatening",
                "raceStim": "w10",
                "trial_num": 152,
                "correct": 1
            },
            {
                "rt": 679,
                "word": "threatening",
                "responded": 1,
                "userResponse": "threatening",
                "wordStim": "violent",
                "race": 18,
                "correctResponse": "threatening",
                "raceStim": "w02",
                "trial_num": 153,
                "correct": 1
            },
            {
                "rt": 631,
                "word": "safe",
                "responded": 1,
                "userResponse": "safe",
                "wordStim": "friendly",
                "race": 158,
                "correctResponse": "safe",
                "raceStim": "b02",
                "trial_num": 154,
                "correct": 1
            },
            {
                "rt": 599,
                "word": "safe",
                "responded": 1,
                "userResponse": "safe",
                "wordStim": "trustworthy",
                "race": 63,
                "correctResponse": "safe",
                "raceStim": "w06",
                "trial_num": 155,
                "correct": 1
            },
            {
                "rt": 657,
                "word": "threatening",
                "responded": 1,
                "userResponse": "threatening",
                "wordStim": "threatening",
                "race": 143,
                "correctResponse": "threatening",
                "raceStim": "w12",
                "trial_num": 156,
                "correct": 1
            },
            {
                "rt": 566,
                "word": "safe",
                "responded": 1,
                "userResponse": "safe",
                "wordStim": "friendly",
                "race": 38,
                "correctResponse": "safe",
                "raceStim": "w04",
                "trial_num": 157,
                "correct": 1
            },
            {
                "rt": 582,
                "word": "safe",
                "responded": 1,
                "userResponse": "safe",
                "wordStim": "innocent",
                "race": 216,
                "correctResponse": "safe",
                "raceStim": "b07",
                "trial_num": 158,
                "correct": 1
            },
            {
                "rt": 664,
                "word": "safe",
                "responded": 1,
                "userResponse": "safe",
                "wordStim": "peaceful",
                "race": 256,
                "correctResponse": "safe",
                "raceStim": "b10",
                "trial_num": 159,
                "correct": 1
            },
            {
                "rt": 479,
                "word": "safe",
                "responded": 1,
                "userResponse": "safe",
                "wordStim": "peaceful",
                "race": 64,
                "correctResponse": "safe",
                "raceStim": "w06",
                "trial_num": 160,
                "correct": 1
            },
            {
                "rt": 447,
                "word": "threatening",
                "responded": 1,
                "userResponse": "safe",
                "wordStim": "hostile",
                "race": 56,
                "correctResponse": "threatening",
                "raceStim": "w05",
                "trial_num": 161,
                "correct": 0
            },
            {
                "rt": 0,
                "word": "safe",
                "responded": 0,
                "wordStim": "harmless",
                "race": 265,
                "raceStim": "b11",
                "trial_num": 162,
                "correct": 0
            },
            {
                "rt": 684,
                "word": "threatening",
                "responded": 1,
                "userResponse": "threatening",
                "wordStim": "threatening",
                "race": 203,
                "correctResponse": "threatening",
                "raceStim": "b05",
                "trial_num": 163,
                "correct": 1
            },
            {
                "rt": 550,
                "word": "safe",
                "responded": 1,
                "userResponse": "safe",
                "wordStim": "innocent",
                "race": 24,
                "correctResponse": "safe",
                "raceStim": "w03",
                "trial_num": 164,
                "correct": 1
            },
            {
                "rt": 455,
                "word": "safe",
                "responded": 1,
                "userResponse": "safe",
                "wordStim": "safe",
                "race": 221,
                "correctResponse": "safe",
                "raceStim": "b07",
                "trial_num": 165,
                "correct": 1
            },
            {
                "rt": 601,
                "word": "safe",
                "responded": 1,
                "userResponse": "threatening",
                "wordStim": "harmless",
                "race": 73,
                "correctResponse": "safe",
                "raceStim": "w07",
                "trial_num": 166,
                "correct": 0
            },
            {
                "rt": 740,
                "word": "threatening",
                "responded": 1,
                "userResponse": "threatening",
                "wordStim": "criminal",
                "race": 286,
                "correctResponse": "threatening",
                "raceStim": "b12",
                "trial_num": 167,
                "correct": 1
            },
            {
                "rt": 681,
                "word": "threatening",
                "responded": 1,
                "userResponse": "threatening",
                "wordStim": "violent",
                "race": 54,
                "correctResponse": "threatening",
                "raceStim": "w05",
                "trial_num": 168,
                "correct": 1
            },
            {
                "rt": 495,
                "word": "threatening",
                "responded": 1,
                "userResponse": "threatening",
                "wordStim": "dangerous",
                "race": 115,
                "correctResponse": "threatening",
                "raceStim": "w10",
                "trial_num": 169,
                "correct": 1
            },
            {
                "rt": 420,
                "word": "threatening",
                "responded": 1,
                "userResponse": "threatening",
                "wordStim": "threatening",
                "race": 239,
                "correctResponse": "threatening",
                "raceStim": "b08",
                "trial_num": 170,
                "correct": 1
            },
            {
                "rt": 503,
                "word": "safe",
                "responded": 1,
                "userResponse": "safe",
                "wordStim": "peaceful",
                "race": 280,
                "correctResponse": "safe",
                "raceStim": "b12",
                "trial_num": 171,
                "correct": 1
            },
            {
                "rt": 480,
                "word": "safe",
                "responded": 1,
                "userResponse": "safe",
                "wordStim": "trustworthy",
                "race": 87,
                "correctResponse": "safe",
                "raceStim": "w08",
                "trial_num": 172,
                "correct": 1
            },
            {
                "rt": 649,
                "word": "threatening",
                "responded": 1,
                "userResponse": "threatening",
                "wordStim": "aggressive",
                "race": 177,
                "correctResponse": "threatening",
                "raceStim": "b03",
                "trial_num": 173,
                "correct": 1
            },
            {
                "rt": 646,
                "word": "threatening",
                "responded": 1,
                "userResponse": "threatening",
                "wordStim": "threatening",
                "race": 35,
                "correctResponse": "threatening",
                "raceStim": "w03",
                "trial_num": 174,
                "correct": 1
            },
            {
                "rt": 544,
                "word": "safe",
                "responded": 1,
                "userResponse": "safe",
                "wordStim": "friendly",
                "race": 194,
                "correctResponse": "safe",
                "raceStim": "b05",
                "trial_num": 175,
                "correct": 1
            },
            {
                "rt": 621,
                "word": "threatening",
                "responded": 1,
                "userResponse": "threatening",
                "wordStim": "dangerous",
                "race": 7,
                "correctResponse": "threatening",
                "raceStim": "w01",
                "trial_num": 176,
                "correct": 1
            },
            {
                "rt": 496,
                "word": "threatening",
                "responded": 1,
                "userResponse": "safe",
                "wordStim": "hostile",
                "race": 116,
                "correctResponse": "threatening",
                "raceStim": "w10",
                "trial_num": 177,
                "correct": 0
            },
            {
                "rt": 0,
                "word": "safe",
                "responded": 0,
                "wordStim": "trustworthy",
                "race": 255,
                "raceStim": "b10",
                "trial_num": 178,
                "correct": 0
            },
            {
                "rt": 0,
                "word": "safe",
                "responded": 0,
                "wordStim": "friendly",
                "race": 206,
                "raceStim": "b06",
                "trial_num": 179,
                "correct": 0
            },
            {
                "rt": 592,
                "word": "safe",
                "responded": 1,
                "userResponse": "safe",
                "wordStim": "innocent",
                "race": 132,
                "correctResponse": "safe",
                "raceStim": "w12",
                "trial_num": 180,
                "correct": 1
            },
            {
                "rt": 591,
                "word": "threatening",
                "responded": 1,
                "userResponse": "threatening",
                "wordStim": "hostile",
                "race": 164,
                "correctResponse": "threatening",
                "raceStim": "b02",
                "trial_num": 181,
                "correct": 1
            },
            {
                "rt": 705,
                "word": "threatening",
                "responded": 1,
                "userResponse": "threatening",
                "wordStim": "aggressive",
                "race": 9,
                "correctResponse": "threatening",
                "raceStim": "w01",
                "trial_num": 182,
                "correct": 1
            },
            {
                "rt": 552,
                "word": "safe",
                "responded": 1,
                "userResponse": "safe",
                "wordStim": "harmless",
                "race": 169,
                "correctResponse": "safe",
                "raceStim": "b03",
                "trial_num": 183,
                "correct": 1
            },
            {
                "rt": 695,
                "word": "threatening",
                "responded": 1,
                "userResponse": "threatening",
                "wordStim": "hostile",
                "race": 224,
                "correctResponse": "threatening",
                "raceStim": "b07",
                "trial_num": 184,
                "correct": 1
            },
            {
                "rt": 514,
                "word": "safe",
                "responded": 1,
                "userResponse": "safe",
                "wordStim": "friendly",
                "race": 266,
                "correctResponse": "safe",
                "raceStim": "b11",
                "trial_num": 185,
                "correct": 1
            },
            {
                "rt": 551,
                "word": "safe",
                "responded": 1,
                "userResponse": "safe",
                "wordStim": "innocent",
                "race": 204,
                "correctResponse": "safe",
                "raceStim": "b06",
                "trial_num": 186,
                "correct": 1
            },
            {
                "rt": 536,
                "word": "safe",
                "responded": 1,
                "userResponse": "safe",
                "wordStim": "harmless",
                "race": 241,
                "correctResponse": "safe",
                "raceStim": "b09",
                "trial_num": 187,
                "correct": 1
            },
            {
                "rt": 480,
                "word": "safe",
                "responded": 1,
                "userResponse": "safe",
                "wordStim": "safe",
                "race": 77,
                "correctResponse": "safe",
                "raceStim": "w07",
                "trial_num": 188,
                "correct": 1
            },
            {
                "rt": 484,
                "word": "threatening",
                "responded": 1,
                "userResponse": "threatening",
                "wordStim": "hostile",
                "race": 152,
                "correctResponse": "threatening",
                "raceStim": "b01",
                "trial_num": 189,
                "correct": 1
            },
            {
                "rt": 681,
                "word": "safe",
                "responded": 1,
                "userResponse": "safe",
                "wordStim": "harmless",
                "race": 205,
                "correctResponse": "safe",
                "raceStim": "b06",
                "trial_num": 190,
                "correct": 1
            },
            {
                "rt": 495,
                "word": "safe",
                "responded": 1,
                "userResponse": "safe",
                "wordStim": "peaceful",
                "race": 160,
                "correctResponse": "safe",
                "raceStim": "b02",
                "trial_num": 191,
                "correct": 1
            },
            {
                "rt": 606,
                "word": "threatening",
                "responded": 1,
                "userResponse": "threatening",
                "wordStim": "violent",
                "race": 126,
                "correctResponse": "threatening",
                "raceStim": "w11",
                "trial_num": 192,
                "correct": 1
            },
            {
                "rt": 649,
                "word": "safe",
                "responded": 1,
                "userResponse": "safe",
                "wordStim": "peaceful",
                "race": 76,
                "correctResponse": "safe",
                "raceStim": "w07",
                "trial_num": 193,
                "correct": 1
            },
            {
                "rt": 480,
                "word": "threatening",
                "responded": 1,
                "userResponse": "safe",
                "wordStim": "aggressive",
                "race": 93,
                "correctResponse": "threatening",
                "raceStim": "w08",
                "trial_num": 194,
                "correct": 0
            },
            {
                "rt": 695,
                "word": "safe",
                "responded": 1,
                "userResponse": "safe",
                "wordStim": "innocent",
                "race": 48,
                "correctResponse": "safe",
                "raceStim": "w05",
                "trial_num": 195,
                "correct": 1
            },
            {
                "rt": 520,
                "word": "threatening",
                "responded": 1,
                "userResponse": "threatening",
                "wordStim": "hostile",
                "race": 212,
                "correctResponse": "threatening",
                "raceStim": "b06",
                "trial_num": 196,
                "correct": 1
            },
            {
                "rt": 671,
                "word": "threatening",
                "responded": 1,
                "userResponse": "threatening",
                "wordStim": "criminal",
                "race": 82,
                "correctResponse": "threatening",
                "raceStim": "w07",
                "trial_num": 197,
                "correct": 1
            },
            {
                "rt": 600,
                "word": "threatening",
                "responded": 1,
                "userResponse": "safe",
                "wordStim": "aggressive",
                "race": 141,
                "correctResponse": "threatening",
                "raceStim": "w12",
                "trial_num": 198,
                "correct": 0
            },
            {
                "rt": 647,
                "word": "safe",
                "responded": 1,
                "userResponse": "safe",
                "wordStim": "peaceful",
                "race": 124,
                "correctResponse": "safe",
                "raceStim": "w11",
                "trial_num": 199,
                "correct": 1
            },
            {
                "rt": 681,
                "word": "safe",
                "responded": 1,
                "userResponse": "safe",
                "wordStim": "trustworthy",
                "race": 39,
                "correctResponse": "safe",
                "raceStim": "w04",
                "trial_num": 200,
                "correct": 1
            },
            {
                "rt": 756,
                "word": "threatening",
                "responded": 1,
                "userResponse": "threatening",
                "wordStim": "aggressive",
                "race": 81,
                "correctResponse": "threatening",
                "raceStim": "w07",
                "trial_num": 201,
                "correct": 1
            },
            {
                "rt": 791,
                "word": "safe",
                "responded": 1,
                "userResponse": "safe",
                "wordStim": "safe",
                "race": 245,
                "correctResponse": "safe",
                "raceStim": "b09",
                "trial_num": 202,
                "correct": 1
            },
            {
                "rt": 633,
                "word": "safe",
                "responded": 1,
                "userResponse": "safe",
                "wordStim": "harmless",
                "race": 217,
                "correctResponse": "safe",
                "raceStim": "b07",
                "trial_num": 203,
                "correct": 1
            },
            {
                "rt": 529,
                "word": "threatening",
                "responded": 1,
                "userResponse": "safe",
                "wordStim": "dangerous",
                "race": 55,
                "correctResponse": "threatening",
                "raceStim": "w05",
                "trial_num": 204,
                "correct": 0
            },
            {
                "rt": 495,
                "word": "safe",
                "responded": 1,
                "userResponse": "threatening",
                "wordStim": "harmless",
                "race": 121,
                "correctResponse": "safe",
                "raceStim": "w11",
                "trial_num": 205,
                "correct": 0
            },
            {
                "rt": 618,
                "word": "safe",
                "responded": 1,
                "userResponse": "safe",
                "wordStim": "trustworthy",
                "race": 243,
                "correctResponse": "safe",
                "raceStim": "b09",
                "trial_num": 206,
                "correct": 1
            },
            {
                "rt": 623,
                "word": "threatening",
                "responded": 1,
                "userResponse": "threatening",
                "wordStim": "threatening",
                "race": 251,
                "correctResponse": "threatening",
                "raceStim": "b09",
                "trial_num": 207,
                "correct": 1
            },
            {
                "rt": 744,
                "word": "safe",
                "responded": 1,
                "userResponse": "safe",
                "wordStim": "innocent",
                "race": 192,
                "correctResponse": "safe",
                "raceStim": "b05",
                "trial_num": 208,
                "correct": 1
            },
            {
                "rt": 687,
                "word": "threatening",
                "responded": 1,
                "userResponse": "threatening",
                "wordStim": "hostile",
                "race": 20,
                "correctResponse": "threatening",
                "raceStim": "w02",
                "trial_num": 209,
                "correct": 1
            },
            {
                "rt": 473,
                "word": "safe",
                "responded": 1,
                "userResponse": "safe",
                "wordStim": "peaceful",
                "race": 232,
                "correctResponse": "safe",
                "raceStim": "b08",
                "trial_num": 210,
                "correct": 1
            },
            {
                "rt": 519,
                "word": "safe",
                "responded": 1,
                "userResponse": "safe",
                "wordStim": "innocent",
                "race": 264,
                "correctResponse": "safe",
                "raceStim": "b11",
                "trial_num": 211,
                "correct": 1
            },
            {
                "rt": 547,
                "word": "safe",
                "responded": 1,
                "userResponse": "safe",
                "wordStim": "harmless",
                "race": 253,
                "correctResponse": "safe",
                "raceStim": "b10",
                "trial_num": 212,
                "correct": 1
            },
            {
                "rt": 473,
                "word": "threatening",
                "responded": 1,
                "userResponse": "threatening",
                "wordStim": "violent",
                "race": 246,
                "correctResponse": "threatening",
                "raceStim": "b09",
                "trial_num": 213,
                "correct": 1
            },
            {
                "rt": 398,
                "word": "safe",
                "responded": 1,
                "userResponse": "safe",
                "wordStim": "peaceful",
                "race": 4,
                "correctResponse": "safe",
                "raceStim": "w01",
                "trial_num": 214,
                "correct": 1
            },
            {
                "rt": 416,
                "word": "threatening",
                "responded": 1,
                "userResponse": "threatening",
                "wordStim": "aggressive",
                "race": 261,
                "correctResponse": "threatening",
                "raceStim": "b10",
                "trial_num": 215,
                "correct": 1
            },
            {
                "rt": 624,
                "word": "safe",
                "responded": 1,
                "userResponse": "safe",
                "wordStim": "harmless",
                "race": 1,
                "correctResponse": "safe",
                "raceStim": "w01",
                "trial_num": 216,
                "correct": 1
            },
            {
                "rt": 450,
                "word": "safe",
                "responded": 1,
                "userResponse": "safe",
                "wordStim": "safe",
                "race": 65,
                "correctResponse": "safe",
                "raceStim": "w06",
                "trial_num": 217,
                "correct": 1
            },
            {
                "rt": 576,
                "word": "safe",
                "responded": 1,
                "userResponse": "safe",
                "wordStim": "innocent",
                "race": 12,
                "correctResponse": "safe",
                "raceStim": "w02",
                "trial_num": 218,
                "correct": 1
            },
            {
                "rt": 455,
                "word": "threatening",
                "responded": 1,
                "userResponse": "threatening",
                "wordStim": "criminal",
                "race": 238,
                "correctResponse": "threatening",
                "raceStim": "b08",
                "trial_num": 219,
                "correct": 1
            },
            {
                "rt": 533,
                "word": "threatening",
                "responded": 1,
                "userResponse": "threatening",
                "wordStim": "violent",
                "race": 222,
                "correctResponse": "threatening",
                "raceStim": "b07",
                "trial_num": 220,
                "correct": 1
            },
            {
                "rt": 598,
                "word": "threatening",
                "responded": 1,
                "userResponse": "threatening",
                "wordStim": "criminal",
                "race": 190,
                "correctResponse": "threatening",
                "raceStim": "b04",
                "trial_num": 221,
                "correct": 1
            },
            {
                "rt": 499,
                "word": "threatening",
                "responded": 1,
                "userResponse": "threatening",
                "wordStim": "criminal",
                "race": 202,
                "correctResponse": "threatening",
                "raceStim": "b05",
                "trial_num": 222,
                "correct": 1
            },
            {
                "rt": 664,
                "word": "safe",
                "responded": 1,
                "userResponse": "safe",
                "wordStim": "safe",
                "race": 197,
                "correctResponse": "safe",
                "raceStim": "b05",
                "trial_num": 223,
                "correct": 1
            },
            {
                "rt": 439,
                "word": "threatening",
                "responded": 1,
                "userResponse": "threatening",
                "wordStim": "dangerous",
                "race": 139,
                "correctResponse": "threatening",
                "raceStim": "w12",
                "trial_num": 224,
                "correct": 1
            },
            {
                "rt": 494,
                "word": "safe",
                "responded": 1,
                "userResponse": "safe",
                "wordStim": "peaceful",
                "race": 52,
                "correctResponse": "safe",
                "raceStim": "w05",
                "trial_num": 225,
                "correct": 1
            },
            {
                "rt": 698,
                "word": "threatening",
                "responded": 1,
                "userResponse": "threatening",
                "wordStim": "threatening",
                "race": 71,
                "correctResponse": "threatening",
                "raceStim": "w06",
                "trial_num": 226,
                "correct": 1
            },
            {
                "rt": 593,
                "word": "threatening",
                "responded": 1,
                "userResponse": "threatening",
                "wordStim": "violent",
                "race": 210,
                "correctResponse": "threatening",
                "raceStim": "b06",
                "trial_num": 227,
                "correct": 1
            },
            {
                "rt": 486,
                "word": "safe",
                "responded": 1,
                "userResponse": "safe",
                "wordStim": "trustworthy",
                "race": 15,
                "correctResponse": "safe",
                "raceStim": "w02",
                "trial_num": 228,
                "correct": 1
            },
            {
                "rt": 506,
                "word": "safe",
                "responded": 1,
                "userResponse": "safe",
                "wordStim": "safe",
                "race": 137,
                "correctResponse": "safe",
                "raceStim": "w12",
                "trial_num": 229,
                "correct": 1
            },
            {
                "rt": 616,
                "word": "safe",
                "responded": 1,
                "userResponse": "safe",
                "wordStim": "trustworthy",
                "race": 159,
                "correctResponse": "safe",
                "raceStim": "b02",
                "trial_num": 230,
                "correct": 1
            },
            {
                "rt": 487,
                "word": "safe",
                "responded": 1,
                "userResponse": "safe",
                "wordStim": "safe",
                "race": 185,
                "correctResponse": "safe",
                "raceStim": "b04",
                "trial_num": 231,
                "correct": 1
            },
            {
                "rt": 465,
                "word": "threatening",
                "responded": 1,
                "userResponse": "safe",
                "wordStim": "dangerous",
                "race": 199,
                "correctResponse": "threatening",
                "raceStim": "b05",
                "trial_num": 232,
                "correct": 0
            },
            {
                "rt": 519,
                "word": "safe",
                "responded": 1,
                "userResponse": "safe",
                "wordStim": "friendly",
                "race": 50,
                "correctResponse": "safe",
                "raceStim": "w05",
                "trial_num": 233,
                "correct": 1
            },
            {
                "rt": 596,
                "word": "threatening",
                "responded": 1,
                "userResponse": "threatening",
                "wordStim": "aggressive",
                "race": 153,
                "correctResponse": "threatening",
                "raceStim": "b01",
                "trial_num": 234,
                "correct": 1
            },
            {
                "rt": 631,
                "word": "safe",
                "responded": 1,
                "userResponse": "safe",
                "wordStim": "safe",
                "race": 29,
                "correctResponse": "safe",
                "raceStim": "w03",
                "trial_num": 235,
                "correct": 1
            },
            {
                "rt": 615,
                "word": "threatening",
                "responded": 1,
                "userResponse": "threatening",
                "wordStim": "aggressive",
                "race": 237,
                "correctResponse": "threatening",
                "raceStim": "b08",
                "trial_num": 236,
                "correct": 1
            },
            {
                "rt": 455,
                "word": "threatening",
                "responded": 1,
                "userResponse": "safe",
                "wordStim": "criminal",
                "race": 10,
                "correctResponse": "threatening",
                "raceStim": "w01",
                "trial_num": 237,
                "correct": 0
            },
            {
                "rt": 736,
                "word": "safe",
                "responded": 1,
                "userResponse": "safe",
                "wordStim": "harmless",
                "race": 145,
                "correctResponse": "safe",
                "raceStim": "b01",
                "trial_num": 238,
                "correct": 1
            },
            {
                "rt": 532,
                "word": "safe",
                "responded": 1,
                "userResponse": "safe",
                "wordStim": "innocent",
                "race": 180,
                "correctResponse": "safe",
                "raceStim": "b04",
                "trial_num": 239,
                "correct": 1
            },
            {
                "rt": 479,
                "word": "threatening",
                "responded": 1,
                "userResponse": "threatening",
                "wordStim": "dangerous",
                "race": 91,
                "correctResponse": "threatening",
                "raceStim": "w08",
                "trial_num": 240,
                "correct": 1
            },
            {
                "rt": 873,
                "word": "safe",
                "responded": 1,
                "userResponse": "threatening",
                "wordStim": "harmless",
                "race": 157,
                "correctResponse": "safe",
                "raceStim": "b02",
                "trial_num": 241,
                "correct": 0
            },
            {
                "rt": 609,
                "word": "safe",
                "responded": 1,
                "userResponse": "safe",
                "wordStim": "friendly",
                "race": 278,
                "correctResponse": "safe",
                "raceStim": "b12",
                "trial_num": 242,
                "correct": 1
            },
            {
                "rt": 615,
                "word": "threatening",
                "responded": 1,
                "userResponse": "threatening",
                "wordStim": "dangerous",
                "race": 247,
                "correctResponse": "threatening",
                "raceStim": "b09",
                "trial_num": 243,
                "correct": 1
            },
            {
                "rt": 561,
                "word": "safe",
                "responded": 1,
                "userResponse": "safe",
                "wordStim": "safe",
                "race": 125,
                "correctResponse": "safe",
                "raceStim": "w11",
                "trial_num": 244,
                "correct": 1
            },
            {
                "rt": 528,
                "word": "threatening",
                "responded": 1,
                "userResponse": "threatening",
                "wordStim": "violent",
                "race": 174,
                "correctResponse": "threatening",
                "raceStim": "b03",
                "trial_num": 245,
                "correct": 1
            },
            {
                "rt": 579,
                "word": "safe",
                "responded": 1,
                "userResponse": "safe",
                "wordStim": "friendly",
                "race": 134,
                "correctResponse": "safe",
                "raceStim": "w12",
                "trial_num": 246,
                "correct": 1
            },
            {
                "rt": 672,
                "word": "threatening",
                "responded": 1,
                "userResponse": "threatening",
                "wordStim": "threatening",
                "race": 287,
                "correctResponse": "threatening",
                "raceStim": "b12",
                "trial_num": 247,
                "correct": 1
            },
            {
                "rt": 0,
                "word": "threatening",
                "responded": 0,
                "wordStim": "hostile",
                "race": 236,
                "raceStim": "b08",
                "trial_num": 248,
                "correct": 0
            },
            {
                "rt": 566,
                "word": "safe",
                "responded": 1,
                "userResponse": "safe",
                "wordStim": "trustworthy",
                "race": 147,
                "correctResponse": "safe",
                "raceStim": "b01",
                "trial_num": 249,
                "correct": 1
            },
            {
                "rt": 480,
                "word": "safe",
                "responded": 1,
                "userResponse": "safe",
                "wordStim": "peaceful",
                "race": 40,
                "correctResponse": "safe",
                "raceStim": "w04",
                "trial_num": 250,
                "correct": 1
            },
            {
                "rt": 641,
                "word": "threatening",
                "responded": 1,
                "userResponse": "threatening",
                "wordStim": "threatening",
                "race": 95,
                "correctResponse": "threatening",
                "raceStim": "w08",
                "trial_num": 251,
                "correct": 1
            },
            {
                "rt": 670,
                "word": "threatening",
                "responded": 1,
                "userResponse": "threatening",
                "wordStim": "hostile",
                "race": 68,
                "correctResponse": "threatening",
                "raceStim": "w06",
                "trial_num": 252,
                "correct": 1
            },
            {
                "rt": 457,
                "word": "threatening",
                "responded": 1,
                "userResponse": "threatening",
                "wordStim": "hostile",
                "race": 200,
                "correctResponse": "threatening",
                "raceStim": "b05",
                "trial_num": 253,
                "correct": 1
            },
            {
                "rt": 521,
                "word": "safe",
                "responded": 1,
                "userResponse": "safe",
                "wordStim": "friendly",
                "race": 218,
                "correctResponse": "safe",
                "raceStim": "b07",
                "trial_num": 254,
                "correct": 1
            },
            {
                "rt": 632,
                "word": "safe",
                "responded": 1,
                "userResponse": "safe",
                "wordStim": "harmless",
                "race": 61,
                "correctResponse": "safe",
                "raceStim": "w06",
                "trial_num": 255,
                "correct": 1
            },
            {
                "rt": 465,
                "word": "safe",
                "responded": 1,
                "userResponse": "safe",
                "wordStim": "harmless",
                "race": 109,
                "correctResponse": "safe",
                "raceStim": "w10",
                "trial_num": 256,
                "correct": 1
            },
            {
                "rt": 423,
                "word": "safe",
                "responded": 1,
                "userResponse": "safe",
                "wordStim": "trustworthy",
                "race": 51,
                "correctResponse": "safe",
                "raceStim": "w05",
                "trial_num": 257,
                "correct": 1
            },
            {
                "rt": 400,
                "word": "threatening",
                "responded": 1,
                "userResponse": "threatening",
                "wordStim": "dangerous",
                "race": 103,
                "correctResponse": "threatening",
                "raceStim": "w09",
                "trial_num": 258,
                "correct": 1
            },
            {
                "rt": 546,
                "word": "safe",
                "responded": 1,
                "userResponse": "safe",
                "wordStim": "safe",
                "race": 173,
                "correctResponse": "safe",
                "raceStim": "b03",
                "trial_num": 259,
                "correct": 1
            },
            {
                "rt": 687,
                "word": "threatening",
                "responded": 1,
                "userResponse": "threatening",
                "wordStim": "criminal",
                "race": 154,
                "correctResponse": "threatening",
                "raceStim": "b01",
                "trial_num": 260,
                "correct": 1
            },
            {
                "rt": 512,
                "word": "safe",
                "responded": 1,
                "userResponse": "safe",
                "wordStim": "friendly",
                "race": 110,
                "correctResponse": "safe",
                "raceStim": "w10",
                "trial_num": 261,
                "correct": 1
            },
            {
                "rt": 415,
                "word": "safe",
                "responded": 1,
                "userResponse": "safe",
                "wordStim": "innocent",
                "race": 84,
                "correctResponse": "safe",
                "raceStim": "w08",
                "trial_num": 262,
                "correct": 1
            },
            {
                "rt": 543,
                "word": "safe",
                "responded": 1,
                "userResponse": "safe",
                "wordStim": "friendly",
                "race": 242,
