{
    "AutoApprovalTime": "2017-11-30T20:19:53Z",
    "AssignmentId": "3UOUJI6MTDEY4GH2K6N6F6HUPSXXUW",
    "WorkerId": "APITQRRX2PADB",
    "answers": {
        "practice_order": [],
        "trial_order": [],
        "demographicsData": [
            {
                "ReligiousAffiliation": "atheist",
                "ReligiousAttendance": "1",
                "SES": "3",
                "Age": "34",
                "Political": "3",
                "Comments": "",
                "Education": "5",
                "Citizen": "1",
                "Male": "0",
                "Ethnicity": "2"
            }
        ],
        "faceType": 159,
        "wordType": "safe",
        "faceInput": "b02",
        "wordInput": "trustworthy",
        "keyBindings": {
            "q": "safe",
            "p": "threatening"
        },
        "data": [
            {
                "rt": 923,
                "word": "threatening",
                "responded": 1,
                "userResponse": "threatening",
                "wordStim": "dangerous",
                "race": 127,
                "correctResponse": "threatening",
                "raceStim": "w11",
                "trial_num": 1,
                "correct": 1
            },
            {
                "rt": 0,
                "word": "threatening",
                "responded": 0,
                "wordStim": "threatening",
                "race": 203,
                "raceStim": "b05",
                "trial_num": 2,
                "correct": 0
            },
            {
                "rt": 827,
                "word": "safe",
                "responded": 1,
                "userResponse": "safe",
                "wordStim": "peaceful",
                "race": 100,
                "correctResponse": "safe",
                "raceStim": "w09",
                "trial_num": 3,
                "correct": 1
            },
            {
                "rt": 590,
                "word": "threatening",
                "responded": 1,
                "userResponse": "threatening",
                "wordStim": "hostile",
                "race": 212,
                "correctResponse": "threatening",
                "raceStim": "b06",
                "trial_num": 4,
                "correct": 1
            },
            {
                "rt": 755,
                "word": "safe",
                "responded": 1,
                "userResponse": "safe",
                "wordStim": "trustworthy",
                "race": 255,
                "correctResponse": "safe",
                "raceStim": "b10",
                "trial_num": 5,
                "correct": 1
            },
            {
                "rt": 915,
                "word": "threatening",
                "responded": 1,
                "userResponse": "threatening",
                "wordStim": "threatening",
                "race": 239,
                "correctResponse": "threatening",
                "raceStim": "b08",
                "trial_num": 6,
                "correct": 1
            },
            {
                "rt": 724,
                "word": "safe",
                "responded": 1,
                "userResponse": "safe",
                "wordStim": "innocent",
                "race": 204,
                "correctResponse": "safe",
                "raceStim": "b06",
                "trial_num": 7,
                "correct": 1
            },
            {
                "rt": 780,
                "word": "threatening",
                "responded": 1,
                "userResponse": "threatening",
                "wordStim": "hostile",
                "race": 248,
                "correctResponse": "threatening",
                "raceStim": "b09",
                "trial_num": 8,
                "correct": 1
            },
            {
                "rt": 764,
                "word": "threatening",
                "responded": 1,
                "userResponse": "threatening",
                "wordStim": "hostile",
                "race": 284,
                "correctResponse": "threatening",
                "raceStim": "b12",
                "trial_num": 9,
                "correct": 1
            },
            {
                "rt": 687,
                "word": "safe",
                "responded": 1,
                "userResponse": "safe",
                "wordStim": "trustworthy",
                "race": 51,
                "correctResponse": "safe",
                "raceStim": "w05",
                "trial_num": 10,
                "correct": 1
            },
            {
                "rt": 644,
                "word": "threatening",
                "responded": 1,
                "userResponse": "threatening",
                "wordStim": "threatening",
                "race": 47,
                "correctResponse": "threatening",
                "raceStim": "w04",
                "trial_num": 11,
                "correct": 1
            },
            {
                "rt": 672,
                "word": "safe",
                "responded": 1,
                "userResponse": "safe",
                "wordStim": "innocent",
                "race": 24,
                "correctResponse": "safe",
                "raceStim": "w03",
                "trial_num": 12,
                "correct": 1
            },
            {
                "rt": 666,
                "word": "threatening",
                "responded": 1,
                "userResponse": "threatening",
                "wordStim": "criminal",
                "race": 178,
                "correctResponse": "threatening",
                "raceStim": "b03",
                "trial_num": 13,
                "correct": 1
            },
            {
                "rt": 598,
                "word": "safe",
                "responded": 1,
                "userResponse": "safe",
                "wordStim": "friendly",
                "race": 218,
                "correctResponse": "safe",
                "raceStim": "b07",
                "trial_num": 14,
                "correct": 1
            },
            {
                "rt": 671,
                "word": "safe",
                "responded": 1,
                "userResponse": "safe",
                "wordStim": "friendly",
                "race": 74,
                "correctResponse": "safe",
                "raceStim": "w07",
                "trial_num": 15,
                "correct": 1
            },
            {
                "rt": 650,
                "word": "safe",
                "responded": 1,
                "userResponse": "safe",
                "wordStim": "trustworthy",
                "race": 243,
                "correctResponse": "safe",
                "raceStim": "b09",
                "trial_num": 16,
                "correct": 1
            },
            {
                "rt": 613,
                "word": "safe",
                "responded": 1,
                "userResponse": "safe",
                "wordStim": "harmless",
                "race": 37,
                "correctResponse": "safe",
                "raceStim": "w04",
                "trial_num": 17,
                "correct": 1
            },
            {
                "rt": 631,
                "word": "threatening",
                "responded": 1,
                "userResponse": "threatening",
                "wordStim": "violent",
                "race": 234,
                "correctResponse": "threatening",
                "raceStim": "b08",
                "trial_num": 18,
                "correct": 1
            },
            {
                "rt": 556,
                "word": "threatening",
                "responded": 1,
                "userResponse": "threatening",
                "wordStim": "criminal",
                "race": 154,
                "correctResponse": "threatening",
                "raceStim": "b01",
                "trial_num": 19,
                "correct": 1
            },
            {
                "rt": 721,
                "word": "threatening",
                "responded": 1,
                "userResponse": "threatening",
                "wordStim": "aggressive",
                "race": 249,
                "correctResponse": "threatening",
                "raceStim": "b09",
                "trial_num": 20,
                "correct": 1
            },
            {
                "rt": 634,
                "word": "safe",
                "responded": 1,
                "userResponse": "threatening",
                "wordStim": "harmless",
                "race": 241,
                "correctResponse": "safe",
                "raceStim": "b09",
                "trial_num": 21,
                "correct": 0
            },
            {
                "rt": 838,
                "word": "threatening",
                "responded": 1,
                "userResponse": "threatening",
                "wordStim": "aggressive",
                "race": 237,
                "correctResponse": "threatening",
                "raceStim": "b08",
                "trial_num": 22,
                "correct": 1
            },
            {
                "rt": 596,
                "word": "safe",
                "responded": 1,
                "userResponse": "safe",
                "wordStim": "trustworthy",
                "race": 183,
                "correctResponse": "safe",
                "raceStim": "b04",
                "trial_num": 23,
                "correct": 1
            },
            {
                "rt": 721,
                "word": "safe",
                "responded": 1,
                "userResponse": "safe",
                "wordStim": "innocent",
                "race": 276,
                "correctResponse": "safe",
                "raceStim": "b12",
                "trial_num": 24,
                "correct": 1
            },
            {
                "rt": 630,
                "word": "threatening",
                "responded": 1,
                "userResponse": "threatening",
                "wordStim": "criminal",
                "race": 262,
                "correctResponse": "threatening",
                "raceStim": "b10",
                "trial_num": 25,
                "correct": 1
            },
            {
                "rt": 0,
                "word": "threatening",
                "responded": 0,
                "wordStim": "aggressive",
                "race": 105,
                "raceStim": "w09",
                "trial_num": 26,
                "correct": 0
            },
            {
                "rt": 831,
                "word": "safe",
                "responded": 1,
                "userResponse": "safe",
                "wordStim": "harmless",
                "race": 229,
                "correctResponse": "safe",
                "raceStim": "b08",
                "trial_num": 27,
                "correct": 1
            },
            {
                "rt": 666,
                "word": "threatening",
                "responded": 1,
                "userResponse": "threatening",
                "wordStim": "dangerous",
                "race": 271,
                "correctResponse": "threatening",
                "raceStim": "b11",
                "trial_num": 28,
                "correct": 1
            },
            {
                "rt": 419,
                "word": "threatening",
                "responded": 1,
                "userResponse": "threatening",
                "wordStim": "dangerous",
                "race": 67,
                "correctResponse": "threatening",
                "raceStim": "w06",
                "trial_num": 29,
                "correct": 1
            },
            {
                "rt": 543,
                "word": "safe",
                "responded": 1,
                "userResponse": "safe",
                "wordStim": "trustworthy",
                "race": 39,
                "correctResponse": "safe",
                "raceStim": "w04",
                "trial_num": 30,
                "correct": 1
            },
            {
                "rt": 529,
                "word": "threatening",
                "responded": 1,
                "userResponse": "threatening",
                "wordStim": "dangerous",
                "race": 211,
                "correctResponse": "threatening",
                "raceStim": "b06",
                "trial_num": 31,
                "correct": 1
            },
            {
                "rt": 592,
                "word": "threatening",
                "responded": 1,
                "userResponse": "threatening",
                "wordStim": "dangerous",
                "race": 79,
                "correctResponse": "threatening",
                "raceStim": "w07",
                "trial_num": 32,
                "correct": 1
            },
            {
                "rt": 567,
                "word": "threatening",
                "responded": 1,
                "userResponse": "threatening",
                "wordStim": "violent",
                "race": 42,
                "correctResponse": "threatening",
                "raceStim": "w04",
                "trial_num": 33,
                "correct": 1
            },
            {
                "rt": 616,
                "word": "safe",
                "responded": 1,
                "userResponse": "safe",
                "wordStim": "safe",
                "race": 29,
                "correctResponse": "safe",
                "raceStim": "w03",
                "trial_num": 34,
                "correct": 1
            },
            {
                "rt": 553,
                "word": "safe",
                "responded": 1,
                "userResponse": "safe",
                "wordStim": "friendly",
                "race": 2,
                "correctResponse": "safe",
                "raceStim": "w01",
                "trial_num": 35,
                "correct": 1
            },
            {
                "rt": 571,
                "word": "safe",
                "responded": 1,
                "userResponse": "safe",
                "wordStim": "harmless",
                "race": 13,
                "correctResponse": "safe",
                "raceStim": "w02",
                "trial_num": 36,
                "correct": 1
            },
            {
                "rt": 487,
                "word": "threatening",
                "responded": 1,
                "userResponse": "threatening",
                "wordStim": "aggressive",
                "race": 213,
                "correctResponse": "threatening",
                "raceStim": "b06",
                "trial_num": 37,
                "correct": 1
            },
            {
                "rt": 614,
                "word": "threatening",
                "responded": 1,
                "userResponse": "threatening",
                "wordStim": "violent",
                "race": 198,
                "correctResponse": "threatening",
                "raceStim": "b05",
                "trial_num": 38,
                "correct": 1
            },
            {
                "rt": 757,
                "word": "threatening",
                "responded": 1,
                "userResponse": "threatening",
                "wordStim": "threatening",
                "race": 131,
                "correctResponse": "threatening",
                "raceStim": "w11",
                "trial_num": 39,
                "correct": 1
            },
            {
                "rt": 772,
                "word": "safe",
                "responded": 1,
                "userResponse": "safe",
                "wordStim": "harmless",
                "race": 217,
                "correctResponse": "safe",
                "raceStim": "b07",
                "trial_num": 40,
                "correct": 1
            },
            {
                "rt": 563,
                "word": "safe",
                "responded": 1,
                "userResponse": "safe",
                "wordStim": "peaceful",
                "race": 220,
                "correctResponse": "safe",
                "raceStim": "b07",
                "trial_num": 41,
                "correct": 1
            },
            {
                "rt": 559,
                "word": "threatening",
                "responded": 1,
                "userResponse": "threatening",
                "wordStim": "threatening",
                "race": 119,
                "correctResponse": "threatening",
                "raceStim": "w10",
                "trial_num": 42,
                "correct": 1
            },
            {
                "rt": 655,
                "word": "safe",
                "responded": 1,
                "userResponse": "safe",
                "wordStim": "peaceful",
                "race": 196,
                "correctResponse": "safe",
                "raceStim": "b05",
                "trial_num": 43,
                "correct": 1
            },
            {
                "rt": 493,
                "word": "safe",
                "responded": 1,
                "userResponse": "safe",
                "wordStim": "harmless",
                "race": 1,
                "correctResponse": "safe",
                "raceStim": "w01",
                "trial_num": 44,
                "correct": 1
            },
            {
                "rt": 475,
                "word": "safe",
                "responded": 1,
                "userResponse": "safe",
                "wordStim": "harmless",
                "race": 85,
                "correctResponse": "safe",
                "raceStim": "w08",
                "trial_num": 45,
                "correct": 1
            },
            {
                "rt": 535,
                "word": "safe",
                "responded": 1,
                "userResponse": "safe",
                "wordStim": "peaceful",
                "race": 112,
                "correctResponse": "safe",
                "raceStim": "w10",
                "trial_num": 46,
                "correct": 1
            },
            {
                "rt": 518,
                "word": "safe",
                "responded": 1,
                "userResponse": "safe",
                "wordStim": "trustworthy",
                "race": 3,
                "correctResponse": "safe",
                "raceStim": "w01",
                "trial_num": 47,
                "correct": 1
            },
            {
                "rt": 463,
                "word": "safe",
                "responded": 1,
                "userResponse": "safe",
                "wordStim": "peaceful",
                "race": 124,
                "correctResponse": "safe",
                "raceStim": "w11",
                "trial_num": 48,
                "correct": 1
            },
            {
                "rt": 416,
                "word": "safe",
                "responded": 1,
                "userResponse": "safe",
                "wordStim": "innocent",
                "race": 228,
                "correctResponse": "safe",
                "raceStim": "b08",
                "trial_num": 49,
                "correct": 1
            },
            {
                "rt": 524,
                "word": "safe",
                "responded": 1,
                "userResponse": "safe",
                "wordStim": "friendly",
                "race": 134,
                "correctResponse": "safe",
                "raceStim": "w12",
                "trial_num": 50,
                "correct": 1
            },
            {
                "rt": 611,
                "word": "threatening",
                "responded": 1,
                "userResponse": "threatening",
                "wordStim": "criminal",
                "race": 22,
                "correctResponse": "threatening",
                "raceStim": "w02",
                "trial_num": 51,
                "correct": 1
            },
            {
                "rt": 357,
                "word": "threatening",
                "responded": 1,
                "userResponse": "threatening",
                "wordStim": "hostile",
                "race": 56,
                "correctResponse": "threatening",
                "raceStim": "w05",
                "trial_num": 52,
                "correct": 1
            },
            {
                "rt": 366,
                "word": "threatening",
                "responded": 1,
                "userResponse": "threatening",
                "wordStim": "aggressive",
                "race": 201,
                "correctResponse": "threatening",
                "raceStim": "b05",
                "trial_num": 53,
                "correct": 1
            },
            {
                "rt": 458,
                "word": "threatening",
                "responded": 1,
                "userResponse": "safe",
                "wordStim": "criminal",
                "race": 34,
                "correctResponse": "threatening",
                "raceStim": "w03",
                "trial_num": 54,
                "correct": 0
            },
            {
                "rt": 0,
                "word": "threatening",
                "responded": 0,
                "wordStim": "threatening",
                "race": 227,
                "raceStim": "b07",
                "trial_num": 55,
                "correct": 0
            },
            {
                "rt": 685,
                "word": "safe",
                "responded": 1,
                "userResponse": "safe",
                "wordStim": "friendly",
                "race": 170,
                "correctResponse": "safe",
                "raceStim": "b03",
                "trial_num": 56,
                "correct": 1
            },
            {
                "rt": 744,
                "word": "threatening",
                "responded": 1,
                "userResponse": "threatening",
                "wordStim": "criminal",
                "race": 142,
                "correctResponse": "threatening",
                "raceStim": "w12",
                "trial_num": 57,
                "correct": 1
            },
            {
                "rt": 569,
                "word": "safe",
                "responded": 1,
                "userResponse": "safe",
                "wordStim": "friendly",
                "race": 38,
                "correctResponse": "safe",
                "raceStim": "w04",
                "trial_num": 58,
                "correct": 1
            },
            {
                "rt": 623,
                "word": "safe",
                "responded": 1,
                "userResponse": "safe",
                "wordStim": "innocent",
                "race": 216,
                "correctResponse": "safe",
                "raceStim": "b07",
                "trial_num": 59,
                "correct": 1
            },
            {
                "rt": 579,
                "word": "threatening",
                "responded": 1,
                "userResponse": "threatening",
                "wordStim": "violent",
                "race": 90,
                "correctResponse": "threatening",
                "raceStim": "w08",
                "trial_num": 60,
                "correct": 1
            },
            {
                "rt": 597,
                "word": "threatening",
                "responded": 1,
                "userResponse": "threatening",
                "wordStim": "hostile",
                "race": 164,
                "correctResponse": "threatening",
                "raceStim": "b02",
                "trial_num": 61,
                "correct": 1
            },
            {
                "rt": 409,
                "word": "threatening",
                "responded": 1,
                "userResponse": "threatening",
                "wordStim": "dangerous",
                "race": 259,
                "correctResponse": "threatening",
                "raceStim": "b10",
                "trial_num": 62,
                "correct": 1
            },
            {
                "rt": 474,
                "word": "safe",
                "responded": 1,
                "userResponse": "safe",
                "wordStim": "trustworthy",
                "race": 27,
                "correctResponse": "safe",
                "raceStim": "w03",
                "trial_num": 63,
                "correct": 1
            },
            {
                "rt": 432,
                "word": "safe",
                "responded": 1,
                "userResponse": "threatening",
                "wordStim": "peaceful",
                "race": 52,
                "correctResponse": "safe",
                "raceStim": "w05",
                "trial_num": 64,
                "correct": 0
            },
            {
                "rt": 584,
                "word": "threatening",
                "responded": 1,
                "userResponse": "threatening",
                "wordStim": "threatening",
                "race": 263,
                "correctResponse": "threatening",
                "raceStim": "b10",
                "trial_num": 65,
                "correct": 1
            },
            {
                "rt": 658,
                "word": "safe",
                "responded": 1,
                "userResponse": "threatening",
                "wordStim": "harmless",
                "race": 109,
                "correctResponse": "safe",
                "raceStim": "w10",
                "trial_num": 66,
                "correct": 0
            },
            {
                "rt": 635,
                "word": "threatening",
                "responded": 1,
                "userResponse": "threatening",
                "wordStim": "violent",
                "race": 270,
                "correctResponse": "threatening",
                "raceStim": "b11",
                "trial_num": 67,
                "correct": 1
            },
            {
                "rt": 533,
                "word": "safe",
                "responded": 1,
                "userResponse": "safe",
                "wordStim": "safe",
                "race": 53,
                "correctResponse": "safe",
                "raceStim": "w05",
                "trial_num": 68,
                "correct": 1
            },
            {
                "rt": 615,
                "word": "threatening",
                "responded": 1,
                "userResponse": "threatening",
                "wordStim": "hostile",
                "race": 188,
                "correctResponse": "threatening",
                "raceStim": "b04",
                "trial_num": 69,
                "correct": 1
            },
            {
                "rt": 531,
                "word": "safe",
                "responded": 1,
                "userResponse": "safe",
                "wordStim": "innocent",
                "race": 60,
                "correctResponse": "safe",
                "raceStim": "w06",
                "trial_num": 70,
                "correct": 1
            },
            {
                "rt": 541,
                "word": "safe",
                "responded": 1,
                "userResponse": "safe",
                "wordStim": "peaceful",
                "race": 268,
                "correctResponse": "safe",
                "raceStim": "b11",
                "trial_num": 71,
                "correct": 1
            },
            {
                "rt": 582,
                "word": "threatening",
                "responded": 1,
                "userResponse": "threatening",
                "wordStim": "criminal",
                "race": 130,
                "correctResponse": "threatening",
                "raceStim": "w11",
                "trial_num": 72,
                "correct": 1
            },
            {
                "rt": 574,
                "word": "safe",
                "responded": 1,
                "userResponse": "safe",
                "wordStim": "friendly",
                "race": 242,
                "correctResponse": "safe",
                "raceStim": "b09",
                "trial_num": 73,
                "correct": 1
            },
            {
                "rt": 578,
                "word": "threatening",
                "responded": 1,
                "userResponse": "threatening",
                "wordStim": "dangerous",
                "race": 55,
                "correctResponse": "threatening",
                "raceStim": "w05",
                "trial_num": 74,
                "correct": 1
            },
            {
                "rt": 583,
                "word": "threatening",
                "responded": 1,
                "userResponse": "threatening",
                "wordStim": "criminal",
                "race": 94,
                "correctResponse": "threatening",
                "raceStim": "w08",
                "trial_num": 75,
                "correct": 1
            },
            {
                "rt": 663,
                "word": "safe",
                "responded": 1,
                "userResponse": "safe",
                "wordStim": "trustworthy",
                "race": 87,
                "correctResponse": "safe",
                "raceStim": "w08",
                "trial_num": 76,
                "correct": 1
            },
            {
                "rt": 717,
                "word": "threatening",
                "responded": 1,
                "userResponse": "threatening",
                "wordStim": "aggressive",
                "race": 261,
                "correctResponse": "threatening",
                "raceStim": "b10",
                "trial_num": 77,
                "correct": 1
            },
            {
                "rt": 731,
                "word": "safe",
                "responded": 1,
                "userResponse": "threatening",
                "wordStim": "safe",
                "race": 125,
                "correctResponse": "safe",
                "raceStim": "w11",
                "trial_num": 78,
                "correct": 0
            },
            {
                "rt": 633,
                "word": "threatening",
                "responded": 1,
                "userResponse": "threatening",
                "wordStim": "threatening",
                "race": 95,
                "correctResponse": "threatening",
                "raceStim": "w08",
                "trial_num": 79,
                "correct": 1
            },
            {
                "rt": 570,
                "word": "threatening",
                "responded": 1,
                "userResponse": "threatening",
                "wordStim": "threatening",
                "race": 35,
                "correctResponse": "threatening",
                "raceStim": "w03",
                "trial_num": 80,
                "correct": 1
            },
            {
                "rt": 570,
                "word": "safe",
                "responded": 1,
                "userResponse": "safe",
                "wordStim": "innocent",
                "race": 132,
                "correctResponse": "safe",
                "raceStim": "w12",
                "trial_num": 81,
                "correct": 1
            },
            {
                "rt": 677,
                "word": "safe",
                "responded": 1,
                "userResponse": "safe",
                "wordStim": "trustworthy",
                "race": 219,
                "correctResponse": "safe",
                "raceStim": "b07",
                "trial_num": 82,
                "correct": 1
            },
            {
                "rt": 667,
                "word": "threatening",
                "responded": 1,
                "userResponse": "threatening",
                "wordStim": "hostile",
                "race": 68,
                "correctResponse": "threatening",
                "raceStim": "w06",
                "trial_num": 83,
                "correct": 1
            },
            {
                "rt": 632,
                "word": "safe",
                "responded": 1,
                "userResponse": "safe",
                "wordStim": "safe",
                "race": 245,
                "correctResponse": "safe",
                "raceStim": "b09",
                "trial_num": 84,
                "correct": 1
            },
            {
                "rt": 537,
                "word": "safe",
                "responded": 1,
                "userResponse": "safe",
                "wordStim": "friendly",
                "race": 146,
                "correctResponse": "safe",
                "raceStim": "b01",
                "trial_num": 85,
                "correct": 1
            },
            {
                "rt": 568,
                "word": "safe",
                "responded": 1,
                "userResponse": "safe",
                "wordStim": "safe",
                "race": 209,
                "correctResponse": "safe",
                "raceStim": "b06",
                "trial_num": 86,
                "correct": 1
            },
            {
                "rt": 444,
                "word": "threatening",
                "responded": 1,
                "userResponse": "threatening",
                "wordStim": "hostile",
                "race": 80,
                "correctResponse": "threatening",
                "raceStim": "w07",
                "trial_num": 87,
                "correct": 1
            },
            {
                "rt": 586,
                "word": "safe",
                "responded": 1,
                "userResponse": "safe",
                "wordStim": "safe",
                "race": 5,
                "correctResponse": "safe",
                "raceStim": "w01",
                "trial_num": 88,
                "correct": 1
            },
            {
                "rt": 428,
                "word": "threatening",
                "responded": 1,
                "userResponse": "safe",
                "wordStim": "hostile",
                "race": 8,
                "correctResponse": "threatening",
                "raceStim": "w01",
                "trial_num": 89,
                "correct": 0
            },
            {
                "rt": 825,
                "word": "safe",
                "responded": 1,
                "userResponse": "safe",
                "wordStim": "harmless",
                "race": 145,
                "correctResponse": "safe",
                "raceStim": "b01",
                "trial_num": 90,
                "correct": 1
            },
            {
                "rt": 616,
                "word": "threatening",
                "responded": 1,
                "userResponse": "threatening",
                "wordStim": "aggressive",
                "race": 225,
                "correctResponse": "threatening",
                "raceStim": "b07",
                "trial_num": 91,
                "correct": 1
            },
            {
                "rt": 665,
                "word": "safe",
                "responded": 1,
                "userResponse": "safe",
                "wordStim": "safe",
                "race": 233,
                "correctResponse": "safe",
                "raceStim": "b08",
                "trial_num": 92,
                "correct": 1
            },
            {
                "rt": 652,
                "word": "threatening",
                "responded": 1,
                "userResponse": "threatening",
                "wordStim": "criminal",
                "race": 166,
                "correctResponse": "threatening",
                "raceStim": "b02",
                "trial_num": 93,
                "correct": 1
            },
            {
                "rt": 584,
                "word": "safe",
                "responded": 1,
                "userResponse": "safe",
                "wordStim": "innocent",
                "race": 84,
                "correctResponse": "safe",
                "raceStim": "w08",
                "trial_num": 94,
                "correct": 1
            },
            {
                "rt": 685,
                "word": "threatening",
                "responded": 1,
                "userResponse": "threatening",
                "wordStim": "aggressive",
                "race": 69,
                "correctResponse": "threatening",
                "raceStim": "w06",
                "trial_num": 95,
                "correct": 1
            },
            {
                "rt": 683,
                "word": "threatening",
                "responded": 1,
                "userResponse": "safe",
                "wordStim": "violent",
                "race": 222,
                "correctResponse": "threatening",
                "raceStim": "b07",
                "trial_num": 96,
                "correct": 0
            },
            {
                "rt": 726,
                "word": "safe",
                "responded": 1,
                "userResponse": "safe",
                "wordStim": "trustworthy",
                "race": 15,
                "correctResponse": "safe",
                "raceStim": "w02",
                "trial_num": 97,
                "correct": 1
            },
            {
                "rt": 779,
                "word": "safe",
                "responded": 1,
                "userResponse": "safe",
                "wordStim": "harmless",
                "race": 277,
                "correctResponse": "safe",
                "raceStim": "b12",
                "trial_num": 98,
                "correct": 1
            },
            {
                "rt": 641,
                "word": "safe",
                "responded": 1,
                "userResponse": "threatening",
                "wordStim": "safe",
                "race": 161,
                "correctResponse": "safe",
                "raceStim": "b02",
                "trial_num": 99,
                "correct": 0
            },
            {
                "rt": 741,
                "word": "safe",
                "responded": 1,
                "userResponse": "safe",
                "wordStim": "innocent",
                "race": 12,
                "correctResponse": "safe",
                "raceStim": "w02",
                "trial_num": 100,
                "correct": 1
            },
            {
                "rt": 459,
                "word": "safe",
                "responded": 1,
                "userResponse": "safe",
                "wordStim": "innocent",
                "race": 168,
                "correctResponse": "safe",
                "raceStim": "b03",
                "trial_num": 101,
                "correct": 1
            },
            {
                "rt": 734,
                "word": "threatening",
                "responded": 1,
                "userResponse": "threatening",
                "wordStim": "violent",
                "race": 54,
                "correctResponse": "threatening",
                "raceStim": "w05",
                "trial_num": 102,
                "correct": 1
            },
            {
                "rt": 715,
                "word": "safe",
                "responded": 1,
                "userResponse": "safe",
                "wordStim": "safe",
                "race": 113,
                "correctResponse": "safe",
                "raceStim": "w10",
                "trial_num": 103,
                "correct": 1
            },
            {
                "rt": 659,
                "word": "threatening",
                "responded": 1,
                "userResponse": "threatening",
                "wordStim": "criminal",
                "race": 286,
                "correctResponse": "threatening",
                "raceStim": "b12",
                "trial_num": 104,
                "correct": 1
            },
            {
                "rt": 708,
                "word": "threatening",
                "responded": 1,
                "userResponse": "threatening",
                "wordStim": "criminal",
                "race": 70,
                "correctResponse": "threatening",
                "raceStim": "w06",
                "trial_num": 105,
                "correct": 1
            },
            {
                "rt": 471,
                "word": "threatening",
                "responded": 1,
                "userResponse": "threatening",
                "wordStim": "criminal",
                "race": 106,
                "correctResponse": "threatening",
                "raceStim": "w09",
                "trial_num": 106,
                "correct": 1
            },
            {
                "rt": 484,
                "word": "threatening",
                "responded": 1,
                "userResponse": "threatening",
                "wordStim": "hostile",
                "race": 116,
                "correctResponse": "threatening",
                "raceStim": "w10",
                "trial_num": 107,
                "correct": 1
            },
            {
                "rt": 642,
                "word": "safe",
                "responded": 1,
                "userResponse": "safe",
                "wordStim": "safe",
                "race": 17,
                "correctResponse": "safe",
                "raceStim": "w02",
                "trial_num": 108,
                "correct": 1
            },
            {
                "rt": 643,
                "word": "safe",
                "responded": 1,
                "userResponse": "threatening",
                "wordStim": "innocent",
                "race": 72,
                "correctResponse": "safe",
                "raceStim": "w07",
                "trial_num": 109,
                "correct": 0
            },
            {
                "rt": 752,
                "word": "safe",
                "responded": 1,
                "userResponse": "safe",
                "wordStim": "innocent",
                "race": 252,
                "correctResponse": "safe",
                "raceStim": "b10",
                "trial_num": 110,
                "correct": 1
            },
            {
                "rt": 614,
                "word": "threatening",
                "responded": 1,
                "userResponse": "threatening",
                "wordStim": "criminal",
                "race": 190,
                "correctResponse": "threatening",
                "raceStim": "b04",
                "trial_num": 111,
                "correct": 1
            },
            {
                "rt": 697,
                "word": "safe",
                "responded": 1,
                "userResponse": "safe",
                "wordStim": "safe",
                "race": 269,
                "correctResponse": "safe",
                "raceStim": "b11",
                "trial_num": 112,
                "correct": 1
            },
            {
                "rt": 630,
                "word": "safe",
                "responded": 1,
                "userResponse": "safe",
                "wordStim": "innocent",
                "race": 240,
                "correctResponse": "safe",
                "raceStim": "b09",
                "trial_num": 113,
                "correct": 1
            },
            {
                "rt": 639,
                "word": "threatening",
                "responded": 1,
                "userResponse": "threatening",
                "wordStim": "hostile",
                "race": 32,
                "correctResponse": "threatening",
                "raceStim": "w03",
                "trial_num": 114,
                "correct": 1
            },
            {
                "rt": 672,
                "word": "threatening",
                "responded": 1,
                "userResponse": "threatening",
                "wordStim": "violent",
                "race": 126,
                "correctResponse": "threatening",
                "raceStim": "w11",
                "trial_num": 115,
                "correct": 1
            },
            {
                "rt": 647,
                "word": "threatening",
                "responded": 1,
                "userResponse": "threatening",
                "wordStim": "aggressive",
                "race": 33,
                "correctResponse": "threatening",
                "raceStim": "w03",
                "trial_num": 116,
                "correct": 1
            },
            {
                "rt": 566,
                "word": "safe",
                "responded": 1,
                "userResponse": "safe",
                "wordStim": "harmless",
                "race": 157,
                "correctResponse": "safe",
                "raceStim": "b02",
                "trial_num": 117,
                "correct": 1
            },
            {
                "rt": 655,
                "word": "safe",
                "responded": 1,
                "userResponse": "safe",
                "wordStim": "trustworthy",
                "race": 123,
                "correctResponse": "safe",
                "raceStim": "w11",
                "trial_num": 118,
                "correct": 1
            },
            {
                "rt": 668,
                "word": "threatening",
                "responded": 1,
                "userResponse": "threatening",
                "wordStim": "dangerous",
                "race": 91,
                "correctResponse": "threatening",
                "raceStim": "w08",
                "trial_num": 119,
                "correct": 1
            },
            {
                "rt": 703,
                "word": "threatening",
                "responded": 1,
                "userResponse": "threatening",
                "wordStim": "aggressive",
                "race": 9,
                "correctResponse": "threatening",
                "raceStim": "w01",
                "trial_num": 120,
                "correct": 1
            },
            {
                "rt": 783,
                "word": "threatening",
                "responded": 1,
                "userResponse": "threatening",
                "wordStim": "criminal",
                "race": 250,
                "correctResponse": "threatening",
                "raceStim": "b09",
                "trial_num": 121,
                "correct": 1
            },
            {
                "rt": 598,
                "word": "threatening",
                "responded": 1,
                "userResponse": "threatening",
                "wordStim": "threatening",
                "race": 155,
                "correctResponse": "threatening",
                "raceStim": "b01",
                "trial_num": 122,
                "correct": 1
            },
            {
                "rt": 760,
                "word": "threatening",
                "responded": 1,
                "userResponse": "threatening",
                "wordStim": "violent",
                "race": 102,
                "correctResponse": "threatening",
                "raceStim": "w09",
                "trial_num": 123,
                "correct": 1
            },
            {
                "rt": 779,
                "word": "safe",
                "responded": 1,
                "userResponse": "safe",
                "wordStim": "peaceful",
                "race": 244,
                "correctResponse": "safe",
                "raceStim": "b09",
                "trial_num": 124,
                "correct": 1
            },
            {
                "rt": 758,
                "word": "threatening",
                "responded": 1,
                "userResponse": "threatening",
                "wordStim": "criminal",
                "race": 226,
                "correctResponse": "threatening",
                "raceStim": "b07",
                "trial_num": 125,
                "correct": 1
            },
            {
                "rt": 616,
                "word": "threatening",
                "responded": 1,
                "userResponse": "threatening",
                "wordStim": "hostile",
                "race": 272,
                "correctResponse": "threatening",
                "raceStim": "b11",
                "trial_num": 126,
                "correct": 1
            },
            {
                "rt": 922,
                "word": "safe",
                "responded": 1,
                "userResponse": "safe",
                "wordStim": "friendly",
                "race": 122,
                "correctResponse": "safe",
                "raceStim": "w11",
                "trial_num": 127,
                "correct": 1
            },
            {
                "rt": 525,
                "word": "safe",
                "responded": 1,
                "userResponse": "safe",
                "wordStim": "peaceful",
                "race": 16,
                "correctResponse": "safe",
                "raceStim": "w02",
                "trial_num": 128,
                "correct": 1
            },
            {
                "rt": 697,
                "word": "threatening",
                "responded": 1,
                "userResponse": "threatening",
                "wordStim": "violent",
                "race": 18,
                "correctResponse": "threatening",
                "raceStim": "w02",
                "trial_num": 129,
                "correct": 1
            },
            {
                "rt": 673,
                "word": "safe",
                "responded": 1,
                "userResponse": "safe",
                "wordStim": "safe",
                "race": 221,
                "correctResponse": "safe",
                "raceStim": "b07",
                "trial_num": 130,
                "correct": 1
            },
            {
                "rt": 627,
                "word": "threatening",
                "responded": 1,
                "userResponse": "threatening",
                "wordStim": "aggressive",
                "race": 165,
                "correctResponse": "threatening",
                "raceStim": "b02",
                "trial_num": 131,
                "correct": 1
            },
            {
                "rt": 0,
                "word": "threatening",
                "responded": 0,
                "wordStim": "hostile",
                "race": 128,
                "raceStim": "w11",
                "trial_num": 132,
                "correct": 0
            },
            {
                "rt": 745,
                "word": "threatening",
                "responded": 1,
                "userResponse": "threatening",
                "wordStim": "violent",
                "race": 210,
                "correctResponse": "threatening",
                "raceStim": "b06",
                "trial_num": 133,
                "correct": 1
            },
            {
                "rt": 0,
                "word": "safe",
                "responded": 0,
                "wordStim": "trustworthy",
                "race": 135,
                "raceStim": "w12",
                "trial_num": 134,
                "correct": 0
            },
            {
                "rt": 618,
                "word": "safe",
                "responded": 1,
                "userResponse": "safe",
                "wordStim": "friendly",
                "race": 50,
                "correctResponse": "safe",
                "raceStim": "w05",
                "trial_num": 135,
                "correct": 1
            },
            {
                "rt": 609,
                "word": "safe",
                "responded": 1,
                "userResponse": "safe",
                "wordStim": "friendly",
                "race": 254,
                "correctResponse": "safe",
                "raceStim": "b10",
                "trial_num": 136,
                "correct": 1
            },
            {
                "rt": 583,
                "word": "threatening",
                "responded": 1,
                "userResponse": "threatening",
                "wordStim": "criminal",
                "race": 46,
                "correctResponse": "threatening",
                "raceStim": "w04",
                "trial_num": 137,
                "correct": 1
            },
            {
                "rt": 577,
                "word": "threatening",
                "responded": 1,
                "userResponse": "threatening",
                "wordStim": "hostile",
                "race": 20,
                "correctResponse": "threatening",
                "raceStim": "w02",
                "trial_num": 138,
                "correct": 1
            },
            {
                "rt": 541,
                "word": "threatening",
                "responded": 1,
                "userResponse": "threatening",
                "wordStim": "violent",
                "race": 150,
                "correctResponse": "threatening",
                "raceStim": "b01",
                "trial_num": 139,
                "correct": 1
            },
            {
                "rt": 490,
                "word": "threatening",
                "responded": 1,
                "userResponse": "threatening",
                "wordStim": "hostile",
                "race": 152,
                "correctResponse": "threatening",
                "raceStim": "b01",
                "trial_num": 140,
                "correct": 1
            },
            {
                "rt": 673,
                "word": "safe",
                "responded": 1,
                "userResponse": "safe",
                "wordStim": "peaceful",
                "race": 172,
                "correctResponse": "safe",
                "raceStim": "b03",
                "trial_num": 141,
                "correct": 1
            },
            {
                "rt": 568,
                "word": "safe",
                "responded": 1,
                "userResponse": "safe",
                "wordStim": "friendly",
                "race": 86,
                "correctResponse": "safe",
                "raceStim": "w08",
                "trial_num": 142,
                "correct": 1
            },
            {
                "rt": 641,
                "word": "threatening",
                "responded": 1,
                "userResponse": "threatening",
                "wordStim": "hostile",
                "race": 104,
                "correctResponse": "threatening",
                "raceStim": "w09",
                "trial_num": 143,
                "correct": 1
            },
            {
                "rt": 862,
                "word": "safe",
                "responded": 1,
                "userResponse": "safe",
                "wordStim": "safe",
                "race": 137,
                "correctResponse": "safe",
                "raceStim": "w12",
                "trial_num": 144,
                "correct": 1
            },
            {
                "rt": 568,
                "word": "threatening",
                "responded": 1,
                "userResponse": "threatening",
                "wordStim": "criminal",
                "race": 274,
                "correctResponse": "threatening",
                "raceStim": "b11",
                "trial_num": 145,
                "correct": 1
            },
            {
                "rt": 441,
                "word": "threatening",
                "responded": 1,
                "userResponse": "threatening",
                "wordStim": "dangerous",
                "race": 187,
                "correctResponse": "threatening",
                "raceStim": "b04",
                "trial_num": 146,
                "correct": 1
            },
            {
                "rt": 590,
                "word": "threatening",
                "responded": 1,
                "userResponse": "safe",
                "wordStim": "criminal",
                "race": 118,
                "correctResponse": "threatening",
                "raceStim": "w10",
                "trial_num": 147,
                "correct": 0
            },
            {
                "rt": 787,
                "word": "threatening",
                "responded": 1,
                "userResponse": "threatening",
                "wordStim": "violent",
                "race": 246,
                "correctResponse": "threatening",
                "raceStim": "b09",
                "trial_num": 148,
                "correct": 1
            },
            {
                "rt": 702,
                "word": "threatening",
                "responded": 1,
                "userResponse": "threatening",
                "wordStim": "threatening",
                "race": 71,
                "correctResponse": "threatening",
                "raceStim": "w06",
                "trial_num": 149,
                "correct": 1
            },
            {
                "rt": 584,
                "word": "safe",
                "responded": 1,
                "userResponse": "safe",
                "wordStim": "peaceful",
                "race": 160,
                "correctResponse": "safe",
                "raceStim": "b02",
                "trial_num": 150,
                "correct": 1
            },
            {
                "rt": 570,
                "word": "threatening",
                "responded": 1,
                "userResponse": "threatening",
                "wordStim": "aggressive",
                "race": 177,
                "correctResponse": "threatening",
                "raceStim": "b03",
                "trial_num": 151,
                "correct": 1
            },
            {
                "rt": 626,
                "word": "threatening",
                "responded": 1,
                "userResponse": "threatening",
                "wordStim": "threatening",
                "race": 143,
                "correctResponse": "threatening",
                "raceStim": "w12",
                "trial_num": 152,
                "correct": 1
            },
            {
                "rt": 290,
                "word": "threatening",
                "responded": 1,
                "userResponse": "threatening",
                "wordStim": "threatening",
                "race": 275,
                "correctResponse": "threatening",
                "raceStim": "b11",
                "trial_num": 153,
                "correct": 1
            },
            {
                "rt": 362,
                "word": "threatening",
                "responded": 1,
                "userResponse": "threatening",
                "wordStim": "aggressive",
                "race": 129,
                "correctResponse": "threatening",
                "raceStim": "w11",
                "trial_num": 154,
                "correct": 1
            },
            {
                "rt": 675,
                "word": "safe",
                "responded": 1,
                "userResponse": "safe",
                "wordStim": "safe",
                "race": 185,
                "correctResponse": "safe",
                "raceStim": "b04",
                "trial_num": 155,
                "correct": 1
            },
            {
                "rt": 397,
                "word": "safe",
                "responded": 1,
                "userResponse": "safe",
                "wordStim": "peaceful",
                "race": 148,
                "correctResponse": "safe",
                "raceStim": "b01",
                "trial_num": 156,
                "correct": 1
            },
            {
                "rt": 659,
                "word": "threatening",
                "responded": 1,
                "userResponse": "threatening",
                "wordStim": "threatening",
                "race": 287,
                "correctResponse": "threatening",
                "raceStim": "b12",
                "trial_num": 157,
                "correct": 1
            },
            {
                "rt": 772,
                "word": "safe",
                "responded": 1,
                "userResponse": "safe",
                "wordStim": "innocent",
                "race": 156,
                "correctResponse": "safe",
                "raceStim": "b02",
                "trial_num": 158,
                "correct": 1
            },
            {
                "rt": 563,
                "word": "threatening",
                "responded": 1,
                "userResponse": "threatening",
                "wordStim": "violent",
                "race": 78,
                "correctResponse": "threatening",
                "raceStim": "w07",
                "trial_num": 159,
                "correct": 1
            },
            {
                "rt": 0,
                "word": "threatening",
                "responded": 0,
                "wordStim": "dangerous",
                "race": 163,
                "raceStim": "b02",
                "trial_num": 160,
                "correct": 0
            },
            {
                "rt": 674,
                "word": "safe",
                "responded": 1,
                "userResponse": "safe",
                "wordStim": "innocent",
                "race": 144,
                "correctResponse": "safe",
                "raceStim": "b01",
                "trial_num": 161,
                "correct": 1
            },
            {
                "rt": 602,
                "word": "safe",
                "responded": 1,
                "userResponse": "safe",
                "wordStim": "friendly",
                "race": 14,
                "correctResponse": "safe",
                "raceStim": "w02",
                "trial_num": 162,
                "correct": 1
            },
            {
                "rt": 453,
                "word": "safe",
                "responded": 1,
                "userResponse": "safe",
                "wordStim": "peaceful",
                "race": 64,
                "correctResponse": "safe",
                "raceStim": "w06",
                "trial_num": 163,
                "correct": 1
            },
            {
                "rt": 606,
                "word": "safe",
                "responded": 1,
                "userResponse": "threatening",
                "wordStim": "friendly",
                "race": 278,
                "correctResponse": "safe",
                "raceStim": "b12",
                "trial_num": 164,
                "correct": 0
            },
            {
                "rt": 557,
                "word": "threatening",
                "responded": 1,
                "userResponse": "threatening",
                "wordStim": "aggressive",
                "race": 21,
                "correctResponse": "threatening",
                "raceStim": "w02",
                "trial_num": 165,
                "correct": 1
            },
            {
                "rt": 760,
                "word": "threatening",
                "responded": 1,
                "userResponse": "threatening",
                "wordStim": "aggressive",
                "race": 117,
                "correctResponse": "threatening",
                "raceStim": "w10",
                "trial_num": 166,
                "correct": 1
            },
            {
                "rt": 499,
                "word": "threatening",
                "responded": 1,
                "userResponse": "threatening",
                "wordStim": "dangerous",
                "race": 235,
                "correctResponse": "threatening",
                "raceStim": "b08",
                "trial_num": 167,
                "correct": 1
            },
            {
                "rt": 607,
                "word": "threatening",
                "responded": 1,
                "userResponse": "threatening",
                "wordStim": "criminal",
                "race": 58,
                "correctResponse": "threatening",
                "raceStim": "w05",
                "trial_num": 168,
                "correct": 1
            },
            {
                "rt": 773,
                "word": "safe",
                "responded": 1,
                "userResponse": "safe",
                "wordStim": "innocent",
                "race": 192,
                "correctResponse": "safe",
                "raceStim": "b05",
                "trial_num": 169,
                "correct": 1
            },
            {
                "rt": 487,
                "word": "safe",
                "responded": 1,
                "userResponse": "safe",
                "wordStim": "innocent",
                "race": 120,
                "correctResponse": "safe",
                "raceStim": "w11",
                "trial_num": 170,
                "correct": 1
            },
            {
                "rt": 912,
                "word": "safe",
                "responded": 1,
                "userResponse": "safe",
                "wordStim": "peaceful",
                "race": 184,
                "correctResponse": "safe",
                "raceStim": "b04",
                "trial_num": 171,
                "correct": 1
            },
            {
                "rt": 791,
                "word": "threatening",
                "responded": 1,
                "userResponse": "safe",
                "wordStim": "threatening",
                "race": 107,
                "correctResponse": "threatening",
                "raceStim": "w09",
                "trial_num": 172,
                "correct": 0
            },
            {
                "rt": 608,
                "word": "safe",
                "responded": 1,
                "userResponse": "threatening",
                "wordStim": "harmless",
                "race": 205,
                "correctResponse": "safe",
                "raceStim": "b06",
                "trial_num": 173,
                "correct": 0
            },
            {
                "rt": 734,
                "word": "threatening",
                "responded": 1,
                "userResponse": "threatening",
                "wordStim": "violent",
                "race": 138,
                "correctResponse": "threatening",
                "raceStim": "w12",
                "trial_num": 174,
                "correct": 1
            },
            {
                "rt": 365,
                "word": "threatening",
                "responded": 1,
                "userResponse": "threatening",
                "wordStim": "aggressive",
                "race": 285,
                "correctResponse": "threatening",
                "raceStim": "b12",
                "trial_num": 175,
                "correct": 1
            },
            {
                "rt": 527,
                "word": "safe",
                "responded": 1,
                "userResponse": "threatening",
                "wordStim": "trustworthy",
                "race": 63,
                "correctResponse": "safe",
                "raceStim": "w06",
                "trial_num": 176,
                "correct": 0
            },
            {
                "rt": 546,
                "word": "threatening",
                "responded": 1,
                "userResponse": "threatening",
                "wordStim": "criminal",
                "race": 214,
                "correctResponse": "threatening",
                "raceStim": "b06",
                "trial_num": 177,
                "correct": 1
            },
            {
                "rt": 0,
                "word": "safe",
                "responded": 0,
                "wordStim": "safe",
                "race": 149,
                "raceStim": "b01",
                "trial_num": 178,
                "correct": 0
            },
            {
                "rt": 873,
                "word": "threatening",
                "responded": 1,
                "userResponse": "threatening",
                "wordStim": "aggressive",
                "race": 273,
                "correctResponse": "threatening",
                "raceStim": "b11",
                "trial_num": 179,
                "correct": 1
            },
            {
                "rt": 829,
                "word": "safe",
                "responded": 1,
                "userResponse": "safe",
                "wordStim": "peaceful",
                "race": 280,
                "correctResponse": "safe",
                "raceStim": "b12",
                "trial_num": 180,
                "correct": 1
            },
            {
                "rt": 525,
                "word": "safe",
                "responded": 1,
                "userResponse": "safe",
                "wordStim": "friendly",
                "race": 110,
                "correctResponse": "safe",
                "raceStim": "w10",
                "trial_num": 181,
                "correct": 1
            },
            {
                "rt": 718,
                "word": "threatening",
                "responded": 1,
                "userResponse": "threatening",
                "wordStim": "hostile",
                "race": 236,
                "correctResponse": "threatening",
                "raceStim": "b08",
                "trial_num": 182,
                "correct": 1
            },
            {
                "rt": 0,
                "word": "threatening",
                "responded": 0,
                "wordStim": "threatening",
                "race": 59,
                "raceStim": "w05",
                "trial_num": 183,
                "correct": 0
            },
            {
                "rt": 714,
                "word": "safe",
                "responded": 1,
                "userResponse": "safe",
                "wordStim": "trustworthy",
                "race": 99,
                "correctResponse": "safe",
                "raceStim": "w09",
                "trial_num": 184,
                "correct": 1
            },
            {
                "rt": 499,
                "word": "safe",
                "responded": 1,
                "userResponse": "safe",
                "wordStim": "friendly",
                "race": 62,
                "correctResponse": "safe",
                "raceStim": "w06",
                "trial_num": 185,
                "correct": 1
            },
            {
                "rt": 376,
                "word": "safe",
                "responded": 1,
                "userResponse": "safe",
                "wordStim": "peaceful",
                "race": 136,
                "correctResponse": "safe",
                "raceStim": "w12",
                "trial_num": 186,
                "correct": 1
            },
            {
                "rt": 266,
                "word": "threatening",
                "responded": 1,
                "userResponse": "safe",
                "wordStim": "hostile",
                "race": 44,
                "correctResponse": "threatening",
                "raceStim": "w04",
                "trial_num": 187,
                "correct": 0
            },
            {
                "rt": 357,
                "word": "safe",
                "responded": 1,
                "userResponse": "safe",
                "wordStim": "harmless",
                "race": 193,
                "correctResponse": "safe",
                "raceStim": "b05",
                "trial_num": 188,
                "correct": 1
            },
            {
                "rt": 394,
                "word": "threatening",
                "responded": 1,
                "userResponse": "safe",
                "wordStim": "criminal",
                "race": 10,
                "correctResponse": "threatening",
                "raceStim": "w01",
                "trial_num": 189,
                "correct": 0
            },
            {
                "rt": 548,
                "word": "threatening",
                "responded": 1,
                "userResponse": "threatening",
                "wordStim": "violent",
                "race": 114,
                "correctResponse": "threatening",
                "raceStim": "w10",
                "trial_num": 190,
                "correct": 1
            },
            {
                "rt": 641,
                "word": "safe",
                "responded": 1,
                "userResponse": "threatening",
                "wordStim": "innocent",
                "race": 0,
                "correctResponse": "safe",
                "raceStim": "w01",
                "trial_num": 191,
                "correct": 0
            },
            {
                "rt": 0,
                "word": "threatening",
                "responded": 0,
                "wordStim": "violent",
                "race": 66,
                "raceStim": "w06",
                "trial_num": 192,
                "correct": 0
            },
            {
                "rt": 669,
                "word": "threatening",
                "responded": 1,
                "userResponse": "threatening",
                "wordStim": "dangerous",
                "race": 151,
                "correctResponse": "threatening",
                "raceStim": "b01",
                "trial_num": 193,
                "correct": 1
            },
            {
                "rt": 642,
                "word": "threatening",
                "responded": 1,
                "userResponse": "threatening",
                "wordStim": "threatening",
                "race": 11,
                "correctResponse": "threatening",
                "raceStim": "w01",
                "trial_num": 194,
                "correct": 1
            },
            {
                "rt": 567,
                "word": "threatening",
                "responded": 1,
                "userResponse": "threatening",
                "wordStim": "violent",
                "race": 162,
                "correctResponse": "threatening",
                "raceStim": "b02",
                "trial_num": 195,
                "correct": 1
            },
            {
                "rt": 560,
                "word": "safe",
                "responded": 1,
                "userResponse": "safe",
                "wordStim": "innocent",
                "race": 180,
                "correctResponse": "safe",
                "raceStim": "b04",
                "trial_num": 196,
                "correct": 1
            },
            {
                "rt": 450,
                "word": "threatening",
                "responded": 1,
                "userResponse": "threatening",
                "wordStim": "dangerous",
                "race": 247,
                "correctResponse": "threatening",
                "raceStim": "b09",
                "trial_num": 197,
                "correct": 1
            },
            {
                "rt": 443,
                "word": "threatening",
                "responded": 1,
                "userResponse": "threatening",
                "wordStim": "aggressive",
                "race": 81,
                "correctResponse": "threatening",
                "raceStim": "w07",
                "trial_num": 198,
                "correct": 1
            },
            {
                "rt": 468,
                "word": "safe",
                "responded": 1,
                "userResponse": "safe",
                "wordStim": "harmless",
                "race": 181,
                "correctResponse": "safe",
                "raceStim": "b04",
                "trial_num": 199,
                "correct": 1
            },
            {
                "rt": 537,
                "word": "threatening",
                "responded": 1,
                "userResponse": "threatening",
                "wordStim": "aggressive",
                "race": 189,
                "correctResponse": "threatening",
                "raceStim": "b04",
                "trial_num": 200,
                "correct": 1
            },
            {
                "rt": 643,
                "word": "threatening",
                "responded": 1,
                "userResponse": "safe",
                "wordStim": "threatening",
                "race": 215,
                "correctResponse": "threatening",
                "raceStim": "b06",
                "trial_num": 201,
                "correct": 0
            },
            {
                "rt": 544,
                "word": "threatening",
                "responded": 1,
                "userResponse": "threatening",
                "wordStim": "violent",
                "race": 186,
                "correctResponse": "threatening",
                "raceStim": "b04",
                "trial_num": 202,
                "correct": 1
            },
            {
                "rt": 687,
                "word": "safe",
                "responded": 1,
                "userResponse": "safe",
                "wordStim": "trustworthy",
                "race": 207,
                "correctResponse": "safe",
                "raceStim": "b06",
                "trial_num": 203,
                "correct": 1
            },
            {
                "rt": 636,
                "word": "safe",
                "responded": 1,
                "userResponse": "safe",
                "wordStim": "friendly",
                "race": 194,
                "correctResponse": "safe",
                "raceStim": "b05",
                "trial_num": 204,
                "correct": 1
            },
            {
                "rt": 0,
                "word": "safe",
                "responded": 0,
                "wordStim": "harmless",
                "race": 253,
                "raceStim": "b10",
                "trial_num": 205,
                "correct": 0
            },
            {
                "rt": 799,
                "word": "safe",
                "responded": 1,
                "userResponse": "safe",
                "wordStim": "trustworthy",
                "race": 75,
                "correctResponse": "safe",
                "raceStim": "w07",
                "trial_num": 206,
                "correct": 1
            },
            {
                "rt": 504,
                "word": "safe",
                "responded": 1,
                "userResponse": "safe",
                "wordStim": "innocent",
                "race": 96,
                "correctResponse": "safe",
                "raceStim": "w09",
                "trial_num": 207,
                "correct": 1
            },
            {
                "rt": 529,
                "word": "threatening",
                "responded": 1,
                "userResponse": "threatening",
                "wordStim": "dangerous",
                "race": 223,
                "correctResponse": "threatening",
                "raceStim": "b07",
                "trial_num": 208,
                "correct": 1
            },
            {
                "rt": 591,
                "word": "threatening",
                "responded": 1,
                "userResponse": "threatening",
                "wordStim": "dangerous",
                "race": 199,
                "correctResponse": "threatening",
                "raceStim": "b05",
                "trial_num": 209,
                "correct": 1
            },
            {
                "rt": 577,
                "word": "safe",
                "responded": 1,
                "userResponse": "safe",
                "wordStim": "safe",
                "race": 89,
                "correctResponse": "safe",
                "raceStim": "w08",
                "trial_num": 210,
                "correct": 1
            },
            {
                "rt": 808,
                "word": "safe",
                "responded": 1,
                "userResponse": "safe",
                "wordStim": "harmless",
                "race": 169,
                "correctResponse": "safe",
                "raceStim": "b03",
                "trial_num": 211,
                "correct": 1
            },
            {
                "rt": 475,
                "word": "safe",
                "responded": 1,
                "userResponse": "safe",
                "wordStim": "trustworthy",
                "race": 195,
                "correctResponse": "safe",
                "raceStim": "b05",
                "trial_num": 212,
                "correct": 1
            },
            {
                "rt": 398,
                "word": "safe",
                "responded": 1,
                "userResponse": "safe",
                "wordStim": "peaceful",
                "race": 28,
                "correctResponse": "safe",
                "raceStim": "w03",
                "trial_num": 213,
                "correct": 1
            },
            {
                "rt": 725,
                "word": "safe",
                "responded": 1,
                "userResponse": "safe",
                "wordStim": "friendly",
                "race": 182,
                "correctResponse": "safe",
                "raceStim": "b04",
                "trial_num": 214,
                "correct": 1
            },
            {
                "rt": 370,
                "word": "threatening",
                "responded": 1,
                "userResponse": "safe",
                "wordStim": "dangerous",
                "race": 7,
                "correctResponse": "threatening",
                "raceStim": "w01",
                "trial_num": 215,
                "correct": 0
            },
            {
                "rt": 798,
                "word": "threatening",
                "responded": 1,
                "userResponse": "threatening",
                "wordStim": "dangerous",
                "race": 115,
                "correctResponse": "threatening",
                "raceStim": "w10",
                "trial_num": 216,
                "correct": 1
            },
            {
                "rt": 611,
                "word": "threatening",
                "responded": 1,
                "userResponse": "threatening",
                "wordStim": "criminal",
                "race": 202,
                "correctResponse": "threatening",
                "raceStim": "b05",
                "trial_num": 217,
                "correct": 1
            },
            {
                "rt": 628,
                "word": "safe",
                "responded": 1,
                "userResponse": "safe",
                "wordStim": "innocent",
                "race": 108,
                "correctResponse": "safe",
                "raceStim": "w10",
                "trial_num": 218,
                "correct": 1
            },
            {
                "rt": 906,
                "word": "threatening",
                "responded": 1,
                "userResponse": "threatening",
                "wordStim": "aggressive",
                "race": 45,
                "correctResponse": "threatening",
                "raceStim": "w04",
                "trial_num": 219,
                "correct": 1
            },
            {
                "rt": 743,
                "word": "threatening",
                "responded": 1,
                "userResponse": "threatening",
                "wordStim": "dangerous",
                "race": 19,
                "correctResponse": "threatening",
                "raceStim": "w02",
                "trial_num": 220,
                "correct": 1
            },
            {
                "rt": 446,
                "word": "threatening",
                "responded": 1,
                "userResponse": "threatening",
                "wordStim": "dangerous",
                "race": 175,
                "correctResponse": "threatening",
                "raceStim": "b03",
                "trial_num": 221,
                "correct": 1
            },
            {
                "rt": 531,
                "word": "threatening",
                "responded": 1,
                "userResponse": "threatening",
                "wordStim": "violent",
                "race": 6,
                "correctResponse": "threatening",
                "raceStim": "w01",
                "trial_num": 222,
                "correct": 1
            },
            {
                "rt": 589,
                "word": "safe",
                "responded": 1,
                "userResponse": "safe",
                "wordStim": "safe",
                "race": 257,
                "correctResponse": "safe",
                "raceStim": "b10",
                "trial_num": 223,
                "correct": 1
            },
            {
                "rt": 546,
                "word": "threatening",
                "responded": 1,
                "userResponse": "safe",
                "wordStim": "aggressive",
                "race": 93,
                "correctResponse": "threatening",
                "raceStim": "w08",
                "trial_num": 224,
                "correct": 0
            },
            {
                "rt": 683,
                "word": "safe",
                "responded": 1,
                "userResponse": "safe",
                "wordStim": "friendly",
                "race": 266,
                "correctResponse": "safe",
                "raceStim": "b11",
                "trial_num": 225,
                "correct": 1
            },
            {
                "rt": 526,
                "word": "safe",
                "responded": 1,
                "userResponse": "safe",
                "wordStim": "friendly",
                "race": 230,
                "correctResponse": "safe",
                "raceStim": "b08",
                "trial_num": 226,
                "correct": 1
            },
            {
                "rt": 588,
                "word": "safe",
                "responded": 1,
                "userResponse": "safe",
                "wordStim": "harmless",
                "race": 133,
                "correctResponse": "safe",
                "raceStim": "w12",
                "trial_num": 227,
                "correct": 1
            },
            {
                "rt": 333,
                "word": "threatening",
                "responded": 1,
                "userResponse": "safe",
                "wordStim": "violent",
                "race": 30,
                "correctResponse": "threatening",
                "raceStim": "w03",
                "trial_num": 228,
                "correct": 0
            },
            {
                "rt": 0,
                "word": "safe",
                "responded": 0,
                "wordStim": "friendly",
                "race": 98,
                "raceStim": "w09",
                "trial_num": 229,
                "correct": 0
            },
            {
                "rt": 719,
                "word": "safe",
                "responded": 1,
                "userResponse": "safe",
                "wordStim": "trustworthy",
                "race": 111,
                "correctResponse": "safe",
                "raceStim": "w10",
                "trial_num": 230,
                "correct": 1
            },
            {
                "rt": 607,
                "word": "threatening",
                "responded": 1,
                "userResponse": "threatening",
                "wordStim": "hostile",
                "race": 224,
                "correctResponse": "threatening",
                "raceStim": "b07",
                "trial_num": 231,
                "correct": 1
            },
            {
                "rt": 674,
                "word": "safe",
                "responded": 1,
                "userResponse": "safe",
                "wordStim": "safe",
                "race": 65,
                "correctResponse": "safe",
                "raceStim": "w06",
                "trial_num": 232,
                "correct": 1
            },
            {
                "rt": 0,
                "word": "safe",
                "responded": 0,
                "wordStim": "harmless",
                "race": 121,
                "raceStim": "w11",
                "trial_num": 233,
                "correct": 0
            },
            {
                "rt": 666,
                "word": "safe",
                "responded": 1,
                "userResponse": "safe",
                "wordStim": "peaceful",
                "race": 208,
                "correctResponse": "safe",
                "raceStim": "b06",
                "trial_num": 234,
                "correct": 1
            },
            {
                "rt": 603,
                "word": "threatening",
                "responded": 1,
                "userResponse": "threatening",
                "wordStim": "threatening",
                "race": 191,
                "correctResponse": "threatening",
                "raceStim": "b04",
                "trial_num": 235,
                "correct": 1
            },
            {
                "rt": 439,
                "word": "safe",
                "responded": 1,
                "userResponse": "safe",
                "wordStim": "safe",
                "race": 173,
                "correctResponse": "safe",
                "raceStim": "b03",
                "trial_num": 236,
                "correct": 1
            },
            {
                "rt": 495,
                "word": "safe",
                "responded": 1,
                "userResponse": "safe",
                "wordStim": "harmless",
                "race": 73,
                "correctResponse": "safe",
                "raceStim": "w07",
                "trial_num": 237,
                "correct": 1
            },
            {
                "rt": 663,
                "word": "threatening",
                "responded": 1,
                "userResponse": "threatening",
                "wordStim": "hostile",
                "race": 140,
                "correctResponse": "threatening",
                "raceStim": "w12",
                "trial_num": 238,
                "correct": 1
            },
            {
                "rt": 447,
                "word": "safe",
                "responded": 1,
                "userResponse": "safe",
                "wordStim": "innocent",
                "race": 36,
                "correctResponse": "safe",
                "raceStim": "w04",
                "trial_num": 239,
                "correct": 1
            },
            {
                "rt": 435,
                "word": "safe",
                "responded": 1,
                "userResponse": "safe",
                "wordStim": "friendly",
                "race": 26,
                "correctResponse": "safe",
                "raceStim": "w03",
                "trial_num": 240,
                "correct": 1
            },
            {
                "rt": 437,
                "word": "safe",
                "responded": 1,
                "userResponse": "safe",
                "wordStim": "peaceful",
                "race": 256,
                "correctResponse": "safe",
                "raceStim": "b10",
                "trial_num": 241,
                "correct": 1
            },
            {
                "rt": 365,
                "word": "safe",
                "responded": 1,
                "userResponse": "safe",
                "wordStim": "harmless",
                "race": 61,
                "correctResponse": "safe",
                "raceStim": "w06",
                "trial_num": 242,
                "correct": 1
            },
            {
                "rt": 374,
                "word": "safe",
                "responded": 1,
                "userResponse": "safe",
                "wordStim": "safe",
                "race": 41,
                "correctResponse": "safe",
                "raceStim": "w04",
                "trial_num": 243,
                "correct": 1
            },
            {
                "rt": 838,
                "word": "safe",
                "responded": 1,
                "userResponse": "safe",
                "wordStim": "trustworthy",
                "race": 267,
                "correctResponse": "safe",
                "raceStim": "b11",
                "trial_num": 244,
                "correct": 1
            },
            {
                "rt": 706,
                "word": "safe",
                "responded": 1,
                "userResponse": "safe",
                "wordStim": "safe",
                "race": 197,
                "correctResponse": "safe",
                "raceStim": "b05",
                "trial_num": 245,
                "correct": 1
            },
            {
                "rt": 528,
                "word": "safe",
                "responded": 1,
                "userResponse": "safe",
                "wordStim": "harmless",
                "race": 49,
                "correctResponse": "safe",
                "raceStim": "w05",
                "trial_num": 246,
                "correct": 1
            },
            {
                "rt": 938,
                "word": "threatening",
                "responded": 1,
                "userResponse": "safe",
                "wordStim": "threatening",
                "race": 23,
                "correctResponse": "threatening",
                "raceStim": "w02",
                "trial_num": 247,
                "correct": 0
            },
            {
                "rt": 712,
                "word": "safe",
                "responded": 1,
                "userResponse": "safe",
                "wordStim": "friendly",
                "race": 206,
                "correctResponse": "safe",
                "raceStim": "b06",
                "trial_num": 248,
                "correct": 1
            },
            {
                "rt": 667,
                "word": "threatening",
                "responded": 1,
                "userResponse": "threatening",
                "wordStim": "dangerous",
                "race": 139,
                "correctResponse": "threatening",
                "raceStim": "w12",
                "trial_num": 249,
                "correct": 1
            },
            {
                "rt": 620,
                "word": "threatening",
                "responded": 1,
                "userResponse": "threatening",
                "wordStim": "hostile",
                "race": 260,
                "correctResponse": "threatening",
                "raceStim": "b10",
                "trial_num": 250,
                "correct": 1
            },
            {
                "rt": 462,
                "word": "threatening",
                "responded": 1,
                "userResponse": "threatening",
                "wordStim": "dangerous",
                "race": 31,
                "correctResponse": "threatening",
                "raceStim": "w03",
                "trial_num": 251,
                "correct": 1
            },
            {
                "rt": 397,
                "word": "safe",
                "responded": 1,
                "userResponse": "threatening",
                "wordStim": "peaceful",
                "race": 4,
                "correctResponse": "safe",
                "raceStim": "w01",
                "trial_num": 252,
                "correct": 0
            },
            {
                "rt": 0,
                "word": "safe",
                "responded": 0,
                "wordStim": "harmless",
                "race": 97,
                "raceStim": "w09",
                "trial_num": 253,
                "correct": 0
            },
            {
                "rt": 601,
                "word": "safe",
                "responded": 1,
                "userResponse": "safe",
                "wordStim": "peaceful",
                "race": 232,
                "correctResponse": "safe",
                "raceStim": "b08",
                "trial_num": 254,
                "correct": 1
            },
            {
                "rt": 504,
                "word": "safe",
                "responded": 1,
                "userResponse": "safe",
                "wordStim": "friendly",
                "race": 158,
                "correctResponse": "safe",
                "raceStim": "b02",
                "trial_num": 255,
                "correct": 1
            },
            {
                "rt": 614,
                "word": "threatening",
                "responded": 1,
                "userResponse": "threatening",
                "wordStim": "aggressive",
                "race": 153,
                "correctResponse": "threatening",
                "raceStim": "b01",
                "trial_num": 256,
                "correct": 1
            },
            {
                "rt": 574,
                "word": "safe",
                "responded": 1,
                "userResponse": "safe",
                "wordStim": "trustworthy",
                "race": 279,
                "correctResponse": "safe",
                "raceStim": "b12",
                "trial_num": 257,
                "correct": 1
            },
            {
                "rt": 816,
                "word": "safe",
                "responded": 1,
                "userResponse": "safe",
                "wordStim": "harmless",
                "race": 25,
                "correctResponse": "safe",
                "raceStim": "w03",
                "trial_num": 258,
                "correct": 1
            },
            {
                "rt": 433,
                "word": "safe",
                "responded": 1,
                "userResponse": "safe",
                "wordStim": "peaceful",
                "race": 88,
                "correctResponse": "safe",
                "raceStim": "w08",
                "trial_num": 259,
                "correct": 1
            },
            {
                "rt": 879,
                "word": "threatening",
                "responded": 1,
                "userResponse": "threatening",
                "wordStim": "hostile",
                "race": 200,
                "correctResponse": "threatening",
                "raceStim": "b05",
                "trial_num": 260,
                "correct": 1
            },
            {
                "rt": 425,
                "word": "threatening",
                "responded": 1,
                "userResponse": "threatening",
                "wordStim": "hostile",
                "race": 176,
                "correctResponse": "threatening",
                "raceStim": "b03",
                "trial_num": 261,
                "correct": 1
            },
            {
                "rt": 720,
                "word": "safe",
                "responded": 1,
                "userResponse": "safe",
                "wordStim": "trustworthy",
                "race": 231,
                "correctResponse": "safe",
                "raceStim": "b08",
                "trial_num": 262,
                "correct": 1
            },
            {
                "rt": 713,
                "word": "safe",
                "responded": 1,
                "userResponse": "safe",
                "wordStim": "safe",
                "race": 101,
                "correctResponse": "safe",
                "raceStim": "w09",
                "trial_num": 263,
                "correct": 1
            },
            {
                "rt": 571,
                "word": "threatening",
                "responded": 1,
                "userResponse": "threatening",
                "wordStim": "violent",
                "race": 282,
                "correctResponse": "threatening",
                "raceStim": "b12",
                "trial_num": 264,
                "correct": 1
            },
            {
                "rt": 736,
                "word": "safe",
