"workerid","religAff","religAtt","ses","age","comments","Edu","Citizen","Gender","Ethnicity","trial_num","rt","correct","raceStim","word","race","wordStim","responded"
"586e402b","christian","2","7","37","no","3","1","0","1",1,0,0,"b03","threatening",178,"criminal",0
"586e402b","christian","2","7","37","no","3","1","0","1",2,919,1,"b12","threatening",282,"violent",1
"586e402b","christian","2","7","37","no","3","1","0","1",3,630,1,"b04","threatening",190,"criminal",1
"586e402b","christian","2","7","37","no","3","1","0","1",4,0,0,"w01","safe",0,"innocent",0
"586e402b","christian","2","7","37","no","3","1","0","1",5,0,0,"w06","safe",60,"innocent",0
"586e402b","christian","2","7","37","no","3","1","0","1",6,595,1,"b11","threatening",273,"aggressive",1
"586e402b","christian","2","7","37","no","3","1","0","1",7,0,0,"b08","safe",232,"peaceful",0
"586e402b","christian","2","7","37","no","3","1","0","1",8,0,0,"b11","safe",267,"trustworthy",0
"586e402b","christian","2","7","37","no","3","1","0","1",9,0,0,"w02","safe",17,"safe",0
"586e402b","christian","2","7","37","no","3","1","0","1",10,565,1,"b01","threatening",154,"criminal",1
"586e402b","christian","2","7","37","no","3","1","0","1",11,662,0,"b05","safe",195,"trustworthy",1
"586e402b","christian","2","7","37","no","3","1","0","1",12,760,1,"w11","threatening",131,"threatening",1
"586e402b","christian","2","7","37","no","3","1","0","1",13,0,0,"w02","safe",12,"innocent",0
"586e402b","christian","2","7","37","no","3","1","0","1",14,725,0,"w05","safe",53,"safe",1
"586e402b","christian","2","7","37","no","3","1","0","1",15,620,1,"b12","threatening",285,"aggressive",1
"586e402b","christian","2","7","37","no","3","1","0","1",16,665,1,"w01","threatening",11,"threatening",1
"586e402b","christian","2","7","37","no","3","1","0","1",17,633,1,"b09","threatening",251,"threatening",1
"586e402b","christian","2","7","37","no","3","1","0","1",18,0,0,"w03","safe",27,"trustworthy",0
"586e402b","christian","2","7","37","no","3","1","0","1",19,0,0,"b08","safe",231,"trustworthy",0
"586e402b","christian","2","7","37","no","3","1","0","1",20,573,1,"w07","threatening",82,"criminal",1
"586e402b","christian","2","7","37","no","3","1","0","1",21,0,0,"b10","safe",254,"friendly",0
"586e402b","christian","2","7","37","no","3","1","0","1",22,543,1,"b06","threatening",211,"dangerous",1
"586e402b","christian","2","7","37","no","3","1","0","1",23,856,0,"w04","safe",37,"harmless",1
"586e402b","christian","2","7","37","no","3","1","0","1",24,0,0,"b04","threatening",186,"violent",0
"586e402b","christian","2","7","37","no","3","1","0","1",25,491,1,"b01","threatening",152,"hostile",1
"586e402b","christian","2","7","37","no","3","1","0","1",26,695,1,"w06","threatening",69,"aggressive",1
"586e402b","christian","2","7","37","no","3","1","0","1",27,0,0,"w04","safe",36,"innocent",0
"586e402b","christian","2","7","37","no","3","1","0","1",28,569,0,"b08","safe",229,"harmless",1
"586e402b","christian","2","7","37","no","3","1","0","1",29,0,0,"b07","safe",218,"friendly",0
"586e402b","christian","2","7","37","no","3","1","0","1",30,0,0,"w04","safe",40,"peaceful",0
"586e402b","christian","2","7","37","no","3","1","0","1",31,0,0,"b05","safe",192,"innocent",0
"586e402b","christian","2","7","37","no","3","1","0","1",32,604,1,"w12","threatening",138,"violent",1
"586e402b","christian","2","7","37","no","3","1","0","1",33,626,1,"w03","threatening",35,"threatening",1
"586e402b","christian","2","7","37","no","3","1","0","1",34,600,1,"b11","threatening",274,"criminal",1
"586e402b","christian","2","7","37","no","3","1","0","1",35,595,1,"b02","threatening",162,"violent",1
"586e402b","christian","2","7","37","no","3","1","0","1",36,717,1,"w03","threatening",31,"dangerous",1
"586e402b","christian","2","7","37","no","3","1","0","1",37,0,0,"w11","safe",120,"innocent",0
"586e402b","christian","2","7","37","no","3","1","0","1",38,0,0,"b12","safe",279,"trustworthy",0
"586e402b","christian","2","7","37","no","3","1","0","1",39,859,1,"w05","threatening",57,"aggressive",1
"586e402b","christian","2","7","37","no","3","1","0","1",40,608,1,"w09","threatening",104,"hostile",1
"586e402b","christian","2","7","37","no","3","1","0","1",41,0,0,"b04","safe",183,"trustworthy",0
"586e402b","christian","2","7","37","no","3","1","0","1",42,583,1,"b03","threatening",177,"aggressive",1
"586e402b","christian","2","7","37","no","3","1","0","1",43,589,1,"b12","threatening",283,"dangerous",1
"586e402b","christian","2","7","37","no","3","1","0","1",44,0,0,"b09","safe",241,"harmless",0
"586e402b","christian","2","7","37","no","3","1","0","1",45,0,0,"b10","safe",256,"peaceful",0
"586e402b","christian","2","7","37","no","3","1","0","1",46,516,1,"w08","threatening",90,"violent",1
"586e402b","christian","2","7","37","no","3","1","0","1",47,610,0,"b06","safe",208,"peaceful",1
"586e402b","christian","2","7","37","no","3","1","0","1",48,762,0,"w02","safe",15,"trustworthy",1
"586e402b","christian","2","7","37","no","3","1","0","1",49,675,0,"b05","safe",196,"peaceful",1
"586e402b","christian","2","7","37","no","3","1","0","1",50,704,0,"b04","safe",185,"safe",1
"586e402b","christian","2","7","37","no","3","1","0","1",51,652,1,"w05","threatening",59,"threatening",1
"586e402b","christian","2","7","37","no","3","1","0","1",52,630,1,"b07","threatening",224,"hostile",1
"586e402b","christian","2","7","37","no","3","1","0","1",53,644,1,"w07","threatening",83,"threatening",1
"586e402b","christian","2","7","37","no","3","1","0","1",54,673,0,"b09","safe",243,"trustworthy",1
"586e402b","christian","2","7","37","no","3","1","0","1",55,0,0,"w01","safe",1,"harmless",0
"586e402b","christian","2","7","37","no","3","1","0","1",56,0,0,"w03","safe",29,"safe",0
"586e402b","christian","2","7","37","no","3","1","0","1",57,602,1,"w04","threatening",42,"violent",1
"586e402b","christian","2","7","37","no","3","1","0","1",58,0,0,"w03","safe",28,"peaceful",0
"586e402b","christian","2","7","37","no","3","1","0","1",59,0,0,"b10","safe",257,"safe",0
"586e402b","christian","2","7","37","no","3","1","0","1",60,0,0,"b03","safe",170,"friendly",0
"586e402b","christian","2","7","37","no","3","1","0","1",61,619,1,"b07","threatening",223,"dangerous",1
"586e402b","christian","2","7","37","no","3","1","0","1",62,0,0,"b08","threatening",238,"criminal",0
"586e402b","christian","2","7","37","no","3","1","0","1",63,0,0,"w12","safe",134,"friendly",0
"586e402b","christian","2","7","37","no","3","1","0","1",64,620,1,"b09","threatening",249,"aggressive",1
"586e402b","christian","2","7","37","no","3","1","0","1",65,0,0,"b05","safe",193,"harmless",0
"586e402b","christian","2","7","37","no","3","1","0","1",66,0,0,"b02","safe",161,"safe",0
"586e402b","christian","2","7","37","no","3","1","0","1",67,627,1,"b11","threatening",271,"dangerous",1
"586e402b","christian","2","7","37","no","3","1","0","1",68,574,1,"b12","threatening",287,"threatening",1
"586e402b","christian","2","7","37","no","3","1","0","1",69,632,1,"b03","threatening",176,"hostile",1
"586e402b","christian","2","7","37","no","3","1","0","1",70,631,1,"b10","threatening",263,"threatening",1
"586e402b","christian","2","7","37","no","3","1","0","1",71,589,1,"w03","threatening",33,"aggressive",1
"586e402b","christian","2","7","37","no","3","1","0","1",72,0,0,"w12","safe",132,"innocent",0
"586e402b","christian","2","7","37","no","3","1","0","1",73,614,1,"w05","threatening",54,"violent",1
"586e402b","christian","2","7","37","no","3","1","0","1",74,0,0,"b11","safe",266,"friendly",0
"586e402b","christian","2","7","37","no","3","1","0","1",75,0,0,"w01","safe",2,"friendly",0
"586e402b","christian","2","7","37","no","3","1","0","1",76,0,0,"b08","safe",230,"friendly",0
"586e402b","christian","2","7","37","no","3","1","0","1",77,0,0,"w05","safe",52,"peaceful",0
"586e402b","christian","2","7","37","no","3","1","0","1",78,551,1,"b08","threatening",234,"violent",1
"586e402b","christian","2","7","37","no","3","1","0","1",79,603,1,"b06","threatening",213,"aggressive",1
"586e402b","christian","2","7","37","no","3","1","0","1",80,617,1,"w07","threatening",79,"dangerous",1
"586e402b","christian","2","7","37","no","3","1","0","1",81,0,0,"b08","threatening",235,"dangerous",0
"586e402b","christian","2","7","37","no","3","1","0","1",82,572,1,"w10","threatening",119,"threatening",1
"586e402b","christian","2","7","37","no","3","1","0","1",83,576,0,"b07","safe",219,"trustworthy",1
"586e402b","christian","2","7","37","no","3","1","0","1",84,890,1,"w01","threatening",8,"hostile",1
"586e402b","christian","2","7","37","no","3","1","0","1",85,658,1,"b03","threatening",174,"violent",1
"586e402b","christian","2","7","37","no","3","1","0","1",86,0,0,"w06","safe",63,"trustworthy",0
"586e402b","christian","2","7","37","no","3","1","0","1",87,0,0,"b01","safe",144,"innocent",0
"586e402b","christian","2","7","37","no","3","1","0","1",88,0,0,"b10","threatening",258,"violent",0
"586e402b","christian","2","7","37","no","3","1","0","1",89,623,1,"b10","threatening",261,"aggressive",1
"586e402b","christian","2","7","37","no","3","1","0","1",90,0,0,"w03","safe",26,"friendly",0
"586e402b","christian","2","7","37","no","3","1","0","1",91,665,1,"b01","threatening",153,"aggressive",1
"586e402b","christian","2","7","37","no","3","1","0","1",92,608,1,"b03","threatening",179,"threatening",1
"586e402b","christian","2","7","37","no","3","1","0","1",93,642,1,"w02","threatening",19,"dangerous",1
"586e402b","christian","2","7","37","no","3","1","0","1",94,564,1,"w08","threatening",95,"threatening",1
"586e402b","christian","2","7","37","no","3","1","0","1",95,0,0,"w09","safe",96,"innocent",0
"586e402b","christian","2","7","37","no","3","1","0","1",96,0,0,"w02","safe",16,"peaceful",0
"586e402b","christian","2","7","37","no","3","1","0","1",97,0,0,"b12","safe",276,"innocent",0
"586e402b","christian","2","7","37","no","3","1","0","1",98,609,1,"w09","threatening",107,"threatening",1
"586e402b","christian","2","7","37","no","3","1","0","1",99,676,1,"w06","threatening",66,"violent",1
"586e402b","christian","2","7","37","no","3","1","0","1",100,0,0,"w07","safe",76,"peaceful",0
"586e402b","christian","2","7","37","no","3","1","0","1",101,619,1,"w10","threatening",118,"criminal",1
"586e402b","christian","2","7","37","no","3","1","0","1",102,0,0,"w05","safe",51,"trustworthy",0
"586e402b","christian","2","7","37","no","3","1","0","1",103,0,0,"w06","safe",65,"safe",0
"586e402b","christian","2","7","37","no","3","1","0","1",104,651,1,"w08","threatening",94,"criminal",1
"586e402b","christian","2","7","37","no","3","1","0","1",105,568,1,"b01","threatening",155,"threatening",1
"586e402b","christian","2","7","37","no","3","1","0","1",106,558,1,"w05","threatening",58,"criminal",1
"586e402b","christian","2","7","37","no","3","1","0","1",107,623,1,"w10","threatening",114,"violent",1
"586e402b","christian","2","7","37","no","3","1","0","1",108,541,1,"b09","safe",240,"innocent",1
"586e402b","christian","2","7","37","no","3","1","0","1",109,618,1,"b10","threatening",262,"criminal",1
"586e402b","christian","2","7","37","no","3","1","0","1",110,575,1,"w01","threatening",6,"violent",1
"586e402b","christian","2","7","37","no","3","1","0","1",111,490,1,"w02","safe",13,"harmless",1
"586e402b","christian","2","7","37","no","3","1","0","1",112,587,1,"b05","threatening",200,"hostile",1
"586e402b","christian","2","7","37","no","3","1","0","1",113,584,1,"w09","threatening",106,"criminal",1
"586e402b","christian","2","7","37","no","3","1","0","1",114,544,1,"w11","safe",124,"peaceful",1
"586e402b","christian","2","7","37","no","3","1","0","1",115,628,0,"b06","safe",209,"safe",1
"586e402b","christian","2","7","37","no","3","1","0","1",116,580,1,"w06","threatening",71,"threatening",1
"586e402b","christian","2","7","37","no","3","1","0","1",117,534,1,"w07","safe",74,"friendly",1
"586e402b","christian","2","7","37","no","3","1","0","1",118,625,1,"b04","threatening",189,"aggressive",1
"586e402b","christian","2","7","37","no","3","1","0","1",119,0,0,"w03","safe",25,"harmless",0
"586e402b","christian","2","7","37","no","3","1","0","1",120,567,1,"w12","threatening",141,"aggressive",1
"586e402b","christian","2","7","37","no","3","1","0","1",121,531,1,"w11","safe",125,"safe",1
"586e402b","christian","2","7","37","no","3","1","0","1",122,718,1,"w11","safe",123,"trustworthy",1
"586e402b","christian","2","7","37","no","3","1","0","1",123,612,1,"b10","threatening",260,"hostile",1
"586e402b","christian","2","7","37","no","3","1","0","1",124,593,0,"w12","safe",137,"safe",1
"586e402b","christian","2","7","37","no","3","1","0","1",125,634,1,"w11","threatening",126,"violent",1
"586e402b","christian","2","7","37","no","3","1","0","1",126,701,0,"w06","safe",62,"friendly",1
"586e402b","christian","2","7","37","no","3","1","0","1",127,647,1,"b04","threatening",188,"hostile",1
"586e402b","christian","2","7","37","no","3","1","0","1",128,504,1,"w09","safe",101,"safe",1
"586e402b","christian","2","7","37","no","3","1","0","1",129,703,1,"w07","safe",75,"trustworthy",1
"586e402b","christian","2","7","37","no","3","1","0","1",130,668,1,"w08","threatening",91,"dangerous",1
"586e402b","christian","2","7","37","no","3","1","0","1",131,678,1,"b06","threatening",212,"hostile",1
"586e402b","christian","2","7","37","no","3","1","0","1",132,625,1,"w06","threatening",67,"dangerous",1
"586e402b","christian","2","7","37","no","3","1","0","1",133,680,1,"w10","threatening",116,"hostile",1
"586e402b","christian","2","7","37","no","3","1","0","1",134,696,1,"b06","threatening",214,"criminal",1
"586e402b","christian","2","7","37","no","3","1","0","1",135,675,0,"w01","threatening",7,"dangerous",1
"586e402b","christian","2","7","37","no","3","1","0","1",136,656,1,"w01","safe",3,"trustworthy",1
"586e402b","christian","2","7","37","no","3","1","0","1",137,0,0,"w12","safe",135,"trustworthy",0
"586e402b","christian","2","7","37","no","3","1","0","1",138,618,1,"b11","threatening",275,"threatening",1
"586e402b","christian","2","7","37","no","3","1","0","1",139,724,0,"w12","safe",133,"harmless",1
"586e402b","christian","2","7","37","no","3","1","0","1",140,602,0,"b06","safe",205,"harmless",1
"586e402b","christian","2","7","37","no","3","1","0","1",141,570,1,"w02","safe",14,"friendly",1
"586e402b","christian","2","7","37","no","3","1","0","1",142,568,1,"w12","safe",136,"peaceful",1
"586e402b","christian","2","7","37","no","3","1","0","1",143,672,0,"w06","safe",61,"harmless",1
"586e402b","christian","2","7","37","no","3","1","0","1",144,703,1,"w07","safe",77,"safe",1
"586e402b","christian","2","7","37","no","3","1","0","1",145,672,1,"w12","threatening",140,"hostile",1
"586e402b","christian","2","7","37","no","3","1","0","1",146,682,1,"b05","safe",194,"friendly",1
"586e402b","christian","2","7","37","no","3","1","0","1",147,605,1,"w10","threatening",115,"dangerous",1
"586e402b","christian","2","7","37","no","3","1","0","1",148,871,1,"w09","safe",97,"harmless",1
"586e402b","christian","2","7","37","no","3","1","0","1",149,516,1,"b11","safe",268,"peaceful",1
"586e402b","christian","2","7","37","no","3","1","0","1",150,587,1,"w01","threatening",9,"aggressive",1
"586e402b","christian","2","7","37","no","3","1","0","1",151,649,1,"w09","threatening",105,"aggressive",1
"586e402b","christian","2","7","37","no","3","1","0","1",152,767,1,"w08","safe",89,"safe",1
"586e402b","christian","2","7","37","no","3","1","0","1",153,711,1,"b02","safe",157,"harmless",1
"586e402b","christian","2","7","37","no","3","1","0","1",154,598,1,"w04","safe",41,"safe",1
"586e402b","christian","2","7","37","no","3","1","0","1",155,666,1,"w02","threatening",18,"violent",1
"586e402b","christian","2","7","37","no","3","1","0","1",156,549,1,"w07","threatening",78,"violent",1
"586e402b","christian","2","7","37","no","3","1","0","1",157,715,1,"b04","safe",180,"innocent",1
"586e402b","christian","2","7","37","no","3","1","0","1",158,637,1,"b01","safe",149,"safe",1
"586e402b","christian","2","7","37","no","3","1","0","1",159,618,1,"b06","threatening",210,"violent",1
"586e402b","christian","2","7","37","no","3","1","0","1",160,666,1,"b05","threatening",203,"threatening",1
"586e402b","christian","2","7","37","no","3","1","0","1",161,691,1,"w10","safe",111,"trustworthy",1
"586e402b","christian","2","7","37","no","3","1","0","1",162,519,1,"b04","safe",184,"peaceful",1
"586e402b","christian","2","7","37","no","3","1","0","1",163,563,1,"b08","threatening",239,"threatening",1
"586e402b","christian","2","7","37","no","3","1","0","1",164,685,1,"b01","threatening",150,"violent",1
"586e402b","christian","2","7","37","no","3","1","0","1",165,627,1,"b03","threatening",175,"dangerous",1
"586e402b","christian","2","7","37","no","3","1","0","1",166,853,1,"w10","safe",109,"harmless",1
"586e402b","christian","2","7","37","no","3","1","0","1",167,826,1,"w11","safe",122,"friendly",1
"586e402b","christian","2","7","37","no","3","1","0","1",168,574,1,"w03","safe",24,"innocent",1
"586e402b","christian","2","7","37","no","3","1","0","1",169,0,0,"b03","safe",168,"innocent",0
"586e402b","christian","2","7","37","no","3","1","0","1",170,598,1,"w02","threatening",22,"criminal",1
"586e402b","christian","2","7","37","no","3","1","0","1",171,744,0,"w07","safe",73,"harmless",1
"586e402b","christian","2","7","37","no","3","1","0","1",172,595,1,"b02","threatening",166,"criminal",1
"586e402b","christian","2","7","37","no","3","1","0","1",173,736,1,"b05","safe",197,"safe",1
"586e402b","christian","2","7","37","no","3","1","0","1",174,739,1,"w02","threatening",23,"threatening",1
"586e402b","christian","2","7","37","no","3","1","0","1",175,663,1,"b03","safe",171,"trustworthy",1
"586e402b","christian","2","7","37","no","3","1","0","1",176,736,1,"w12","threatening",139,"dangerous",1
"586e402b","christian","2","7","37","no","3","1","0","1",177,604,1,"w08","safe",86,"friendly",1
"586e402b","christian","2","7","37","no","3","1","0","1",178,657,1,"b12","threatening",284,"hostile",1
"586e402b","christian","2","7","37","no","3","1","0","1",179,590,1,"b12","safe",277,"harmless",1
"586e402b","christian","2","7","37","no","3","1","0","1",180,670,1,"b05","threatening",198,"violent",1
"586e402b","christian","2","7","37","no","3","1","0","1",181,559,1,"b06","safe",206,"friendly",1
"586e402b","christian","2","7","37","no","3","1","0","1",182,644,1,"w04","safe",39,"trustworthy",1
"586e402b","christian","2","7","37","no","3","1","0","1",183,540,1,"w06","safe",64,"peaceful",1
"586e402b","christian","2","7","37","no","3","1","0","1",184,618,1,"b04","threatening",187,"dangerous",1
"586e402b","christian","2","7","37","no","3","1","0","1",185,707,1,"w08","safe",88,"peaceful",1
"586e402b","christian","2","7","37","no","3","1","0","1",186,931,1,"b03","safe",169,"harmless",1
"586e402b","christian","2","7","37","no","3","1","0","1",187,640,1,"b08","threatening",237,"aggressive",1
"586e402b","christian","2","7","37","no","3","1","0","1",188,644,1,"b12","threatening",286,"criminal",1
"586e402b","christian","2","7","37","no","3","1","0","1",189,596,1,"b06","safe",207,"trustworthy",1
"586e402b","christian","2","7","37","no","3","1","0","1",190,553,1,"b04","safe",182,"friendly",1
"586e402b","christian","2","7","37","no","3","1","0","1",191,658,0,"b11","safe",265,"harmless",1
"586e402b","christian","2","7","37","no","3","1","0","1",192,590,1,"b11","threatening",270,"violent",1
"586e402b","christian","2","7","37","no","3","1","0","1",193,597,1,"b10","threatening",259,"dangerous",1
"586e402b","christian","2","7","37","no","3","1","0","1",194,642,1,"b09","threatening",250,"criminal",1
"586e402b","christian","2","7","37","no","3","1","0","1",195,614,1,"b08","safe",233,"safe",1
"586e402b","christian","2","7","37","no","3","1","0","1",196,668,1,"b04","safe",181,"harmless",1
"586e402b","christian","2","7","37","no","3","1","0","1",197,530,1,"b10","safe",255,"trustworthy",1
"586e402b","christian","2","7","37","no","3","1","0","1",198,528,1,"b12","safe",280,"peaceful",1
"586e402b","christian","2","7","37","no","3","1","0","1",199,675,1,"b10","safe",253,"harmless",1
"586e402b","christian","2","7","37","no","3","1","0","1",200,707,1,"w06","threatening",68,"hostile",1
"586e402b","christian","2","7","37","no","3","1","0","1",201,0,0,"b10","safe",252,"innocent",0
"586e402b","christian","2","7","37","no","3","1","0","1",202,684,1,"w09","safe",99,"trustworthy",1
"586e402b","christian","2","7","37","no","3","1","0","1",203,667,1,"w03","threatening",30,"violent",1
"586e402b","christian","2","7","37","no","3","1","0","1",204,819,1,"b09","threatening",248,"hostile",1
"586e402b","christian","2","7","37","no","3","1","0","1",205,612,1,"w04","threatening",44,"hostile",1
"586e402b","christian","2","7","37","no","3","1","0","1",206,605,0,"w12","threatening",142,"criminal",1
"586e402b","christian","2","7","37","no","3","1","0","1",207,633,1,"b07","threatening",226,"criminal",1
"586e402b","christian","2","7","37","no","3","1","0","1",208,616,1,"b03","safe",172,"peaceful",1
"586e402b","christian","2","7","37","no","3","1","0","1",209,635,1,"w08","threatening",92,"hostile",1
"586e402b","christian","2","7","37","no","3","1","0","1",210,729,1,"b02","safe",160,"peaceful",1
"586e402b","christian","2","7","37","no","3","1","0","1",211,594,1,"w04","threatening",46,"criminal",1
"586e402b","christian","2","7","37","no","3","1","0","1",212,613,1,"b08","threatening",236,"hostile",1
"586e402b","christian","2","7","37","no","3","1","0","1",213,652,1,"w05","safe",50,"friendly",1
"586e402b","christian","2","7","37","no","3","1","0","1",214,600,1,"b03","safe",173,"safe",1
"586e402b","christian","2","7","37","no","3","1","0","1",215,618,1,"w06","threatening",70,"criminal",1
"586e402b","christian","2","7","37","no","3","1","0","1",216,776,1,"b11","safe",269,"safe",1
"586e402b","christian","2","7","37","no","3","1","0","1",217,846,1,"b07","safe",220,"peaceful",1
"586e402b","christian","2","7","37","no","3","1","0","1",218,741,1,"b05","threatening",202,"criminal",1
"586e402b","christian","2","7","37","no","3","1","0","1",219,0,0,"b11","threatening",272,"hostile",0
"586e402b","christian","2","7","37","no","3","1","0","1",220,588,0,"w04","safe",38,"friendly",1
"586e402b","christian","2","7","37","no","3","1","0","1",221,554,1,"w01","safe",4,"peaceful",1
"586e402b","christian","2","7","37","no","3","1","0","1",222,568,1,"w10","safe",112,"peaceful",1
"586e402b","christian","2","7","37","no","3","1","0","1",223,568,1,"w10","safe",108,"innocent",1
"586e402b","christian","2","7","37","no","3","1","0","1",224,579,1,"b07","safe",221,"safe",1
"586e402b","christian","2","7","37","no","3","1","0","1",225,628,1,"b07","safe",216,"innocent",1
"586e402b","christian","2","7","37","no","3","1","0","1",226,691,1,"b06","threatening",215,"threatening",1
"586e402b","christian","2","7","37","no","3","1","0","1",227,574,1,"b05","threatening",199,"dangerous",1
"586e402b","christian","2","7","37","no","3","1","0","1",228,658,1,"w01","threatening",10,"criminal",1
"586e402b","christian","2","7","37","no","3","1","0","1",229,721,1,"w05","threatening",56,"hostile",1
"586e402b","christian","2","7","37","no","3","1","0","1",230,576,1,"b01","threatening",151,"dangerous",1
"586e402b","christian","2","7","37","no","3","1","0","1",231,559,1,"b09","safe",244,"peaceful",1
"586e402b","christian","2","7","37","no","3","1","0","1",232,644,1,"b02","threatening",165,"aggressive",1
"586e402b","christian","2","7","37","no","3","1","0","1",233,574,1,"b09","safe",242,"friendly",1
"586e402b","christian","2","7","37","no","3","1","0","1",234,602,1,"b02","safe",156,"innocent",1
"586e402b","christian","2","7","37","no","3","1","0","1",235,542,1,"w09","safe",98,"friendly",1
"586e402b","christian","2","7","37","no","3","1","0","1",236,589,1,"b06","safe",204,"innocent",1
"586e402b","christian","2","7","37","no","3","1","0","1",237,674,1,"w01","safe",5,"safe",1
"586e402b","christian","2","7","37","no","3","1","0","1",238,627,1,"w04","threatening",47,"threatening",1
"586e402b","christian","2","7","37","no","3","1","0","1",239,616,1,"w05","safe",48,"innocent",1
"586e402b","christian","2","7","37","no","3","1","0","1",240,609,1,"b02","threatening",167,"threatening",1
"586e402b","christian","2","7","37","no","3","1","0","1",241,644,0,"w11","threatening",127,"dangerous",1
"586e402b","christian","2","7","37","no","3","1","0","1",242,713,1,"w07","threatening",80,"hostile",1
"586e402b","christian","2","7","37","no","3","1","0","1",243,614,1,"w04","threatening",43,"dangerous",1
"586e402b","christian","2","7","37","no","3","1","0","1",244,653,1,"w11","threatening",128,"hostile",1
"586e402b","christian","2","7","37","no","3","1","0","1",245,645,1,"w08","safe",87,"trustworthy",1
"586e402b","christian","2","7","37","no","3","1","0","1",246,520,1,"b02","safe",159,"trustworthy",1
"586e402b","christian","2","7","37","no","3","1","0","1",247,511,1,"w09","safe",100,"peaceful",1
"586e402b","christian","2","7","37","no","3","1","0","1",248,483,1,"b01","safe",148,"peaceful",1
"586e402b","christian","2","7","37","no","3","1","0","1",249,612,1,"w10","safe",110,"friendly",1
"586e402b","christian","2","7","37","no","3","1","0","1",250,606,1,"w08","threatening",93,"aggressive",1
"586e402b","christian","2","7","37","no","3","1","0","1",251,530,1,"b07","threatening",222,"violent",1
"586e402b","christian","2","7","37","no","3","1","0","1",252,602,1,"w03","threatening",34,"criminal",1
"586e402b","christian","2","7","37","no","3","1","0","1",253,710,1,"w11","threatening",129,"aggressive",1
"586e402b","christian","2","7","37","no","3","1","0","1",254,659,1,"w08","safe",84,"innocent",1
"586e402b","christian","2","7","37","no","3","1","0","1",255,516,1,"b09","safe",245,"safe",1
"586e402b","christian","2","7","37","no","3","1","0","1",256,674,1,"w04","threatening",45,"aggressive",1
"586e402b","christian","2","7","37","no","3","1","0","1",257,618,1,"b08","safe",228,"innocent",1
"586e402b","christian","2","7","37","no","3","1","0","1",258,556,1,"b07","safe",217,"harmless",1
"586e402b","christian","2","7","37","no","3","1","0","1",259,604,1,"b11","safe",264,"innocent",1
"586e402b","christian","2","7","37","no","3","1","0","1",260,590,1,"w10","threatening",117,"aggressive",1
"586e402b","christian","2","7","37","no","3","1","0","1",261,597,1,"b09","threatening",246,"violent",1
"586e402b","christian","2","7","37","no","3","1","0","1",262,540,1,"w02","threatening",20,"hostile",1
"586e402b","christian","2","7","37","no","3","1","0","1",263,600,1,"b02","safe",158,"friendly",1
"586e402b","christian","2","7","37","no","3","1","0","1",264,623,1,"w07","safe",72,"innocent",1
"586e402b","christian","2","7","37","no","3","1","0","1",265,593,1,"b04","threatening",191,"threatening",1
"586e402b","christian","2","7","37","no","3","1","0","1",266,598,1,"w05","threatening",55,"dangerous",1
"586e402b","christian","2","7","37","no","3","1","0","1",267,726,1,"b01","safe",146,"friendly",1
"586e402b","christian","2","7","37","no","3","1","0","1",268,603,0,"b01","safe",145,"harmless",1
"586e402b","christian","2","7","37","no","3","1","0","1",269,505,1,"b12","safe",281,"safe",1
"586e402b","christian","2","7","37","no","3","1","0","1",270,642,1,"w07","threatening",81,"aggressive",1
"586e402b","christian","2","7","37","no","3","1","0","1",271,559,1,"b12","safe",278,"friendly",1
"586e402b","christian","2","7","37","no","3","1","0","1",272,587,1,"b02","threatening",163,"dangerous",1
"586e402b","christian","2","7","37","no","3","1","0","1",273,676,1,"w11","threatening",130,"criminal",1
"586e402b","christian","2","7","37","no","3","1","0","1",274,573,1,"w02","threatening",21,"aggressive",1
"586e402b","christian","2","7","37","no","3","1","0","1",275,776,1,"w11","safe",121,"harmless",1
"586e402b","christian","2","7","37","no","3","1","0","1",276,777,1,"b01","safe",147,"trustworthy",1
"586e402b","christian","2","7","37","no","3","1","0","1",277,648,1,"b02","threatening",164,"hostile",1
"586e402b","christian","2","7","37","no","3","1","0","1",278,637,1,"w09","threatening",102,"violent",1
"586e402b","christian","2","7","37","no","3","1","0","1",279,634,1,"b07","threatening",225,"aggressive",1
"586e402b","christian","2","7","37","no","3","1","0","1",280,600,0,"w05","safe",49,"harmless",1
"586e402b","christian","2","7","37","no","3","1","0","1",281,888,1,"w08","safe",85,"harmless",1
"586e402b","christian","2","7","37","no","3","1","0","1",282,705,1,"w03","threatening",32,"hostile",1
"586e402b","christian","2","7","37","no","3","1","0","1",283,694,1,"w10","safe",113,"safe",1
"586e402b","christian","2","7","37","no","3","1","0","1",284,633,1,"b05","threatening",201,"aggressive",1
"586e402b","christian","2","7","37","no","3","1","0","1",285,696,1,"w09","threatening",103,"dangerous",1
"586e402b","christian","2","7","37","no","3","1","0","1",286,602,1,"b07","threatening",227,"threatening",1
"586e402b","christian","2","7","37","no","3","1","0","1",287,587,1,"w12","threatening",143,"threatening",1
"586e402b","christian","2","7","37","no","3","1","0","1",288,0,0,"b09","threatening",247,"dangerous",0
"a2545688","Atheist","1","8","19","","2","1","1","1",1,0,0,"w01","threatening",8,"hostile",0
"a2545688","Atheist","1","8","19","","2","1","1","1",2,505,1,"w10","safe",112,"peaceful",1
"a2545688","Atheist","1","8","19","","2","1","1","1",3,442,1,"w12","threatening",141,"aggressive",1
"a2545688","Atheist","1","8","19","","2","1","1","1",4,545,1,"w05","threatening",54,"violent",1
"a2545688","Atheist","1","8","19","","2","1","1","1",5,525,1,"w06","safe",61,"harmless",1
"a2545688","Atheist","1","8","19","","2","1","1","1",6,527,1,"w10","safe",110,"friendly",1
"a2545688","Atheist","1","8","19","","2","1","1","1",7,575,1,"w11","safe",120,"innocent",1
"a2545688","Atheist","1","8","19","","2","1","1","1",8,486,1,"w10","threatening",115,"dangerous",1
"a2545688","Atheist","1","8","19","","2","1","1","1",9,538,1,"b09","threatening",246,"violent",1
"a2545688","Atheist","1","8","19","","2","1","1","1",10,478,1,"b10","safe",253,"harmless",1
"a2545688","Atheist","1","8","19","","2","1","1","1",11,446,1,"b06","threatening",215,"threatening",1
"a2545688","Atheist","1","8","19","","2","1","1","1",12,569,1,"b04","safe",183,"trustworthy",1
"a2545688","Atheist","1","8","19","","2","1","1","1",13,441,1,"w09","threatening",103,"dangerous",1
"a2545688","Atheist","1","8","19","","2","1","1","1",14,544,1,"b09","safe",243,"trustworthy",1
"a2545688","Atheist","1","8","19","","2","1","1","1",15,484,1,"w11","threatening",129,"aggressive",1
"a2545688","Atheist","1","8","19","","2","1","1","1",16,561,1,"b05","threatening",201,"aggressive",1
"a2545688","Atheist","1","8","19","","2","1","1","1",17,538,0,"w11","threatening",128,"hostile",1
"a2545688","Atheist","1","8","19","","2","1","1","1",18,520,1,"b04","threatening",189,"aggressive",1
"a2545688","Atheist","1","8","19","","2","1","1","1",19,518,1,"b01","safe",145,"harmless",1
"a2545688","Atheist","1","8","19","","2","1","1","1",20,585,1,"b07","threatening",225,"aggressive",1
"a2545688","Atheist","1","8","19","","2","1","1","1",21,799,1,"w02","threatening",22,"criminal",1
"a2545688","Atheist","1","8","19","","2","1","1","1",22,455,1,"b06","threatening",214,"criminal",1
"a2545688","Atheist","1","8","19","","2","1","1","1",23,433,1,"w09","threatening",106,"criminal",1
"a2545688","Atheist","1","8","19","","2","1","1","1",24,650,1,"w07","safe",74,"friendly",1
"a2545688","Atheist","1","8","19","","2","1","1","1",25,528,1,"b11","threatening",274,"criminal",1
"a2545688","Atheist","1","8","19","","2","1","1","1",26,533,1,"w10","safe",108,"innocent",1
"a2545688","Atheist","1","8","19","","2","1","1","1",27,672,1,"b10","safe",254,"friendly",1
"a2545688","Atheist","1","8","19","","2","1","1","1",28,516,0,"w02","safe",15,"trustworthy",1
"a2545688","Atheist","1","8","19","","2","1","1","1",29,569,1,"b03","threatening",177,"aggressive",1
"a2545688","Atheist","1","8","19","","2","1","1","1",30,556,1,"b07","threatening",223,"dangerous",1
"a2545688","Atheist","1","8","19","","2","1","1","1",31,436,1,"b06","threatening",211,"dangerous",1
"a2545688","Atheist","1","8","19","","2","1","1","1",32,496,1,"b11","safe",266,"friendly",1
"a2545688","Atheist","1","8","19","","2","1","1","1",33,667,0,"b08","safe",229,"harmless",1
"a2545688","Atheist","1","8","19","","2","1","1","1",34,785,1,"b06","safe",209,"safe",1
"a2545688","Atheist","1","8","19","","2","1","1","1",35,469,1,"b04","safe",180,"innocent",1
"a2545688","Atheist","1","8","19","","2","1","1","1",36,526,1,"w02","safe",14,"friendly",1
"a2545688","Atheist","1","8","19","","2","1","1","1",37,423,1,"w02","safe",17,"safe",1
"a2545688","Atheist","1","8","19","","2","1","1","1",38,469,1,"w04","threatening",43,"dangerous",1
"a2545688","Atheist","1","8","19","","2","1","1","1",39,641,1,"w09","safe",97,"harmless",1
"a2545688","Atheist","1","8","19","","2","1","1","1",40,464,1,"b10","safe",252,"innocent",1
"a2545688","Atheist","1","8","19","","2","1","1","1",41,555,1,"b01","safe",146,"friendly",1
"a2545688","Atheist","1","8","19","","2","1","1","1",42,535,1,"w06","threatening",68,"hostile",1
"a2545688","Atheist","1","8","19","","2","1","1","1",43,768,0,"b02","safe",160,"peaceful",1
"a2545688","Atheist","1","8","19","","2","1","1","1",44,504,1,"b05","threatening",198,"violent",1
"a2545688","Atheist","1","8","19","","2","1","1","1",45,540,1,"w03","safe",27,"trustworthy",1
"a2545688","Atheist","1","8","19","","2","1","1","1",46,707,0,"w12","safe",133,"harmless",1
"a2545688","Atheist","1","8","19","","2","1","1","1",47,771,0,"w07","threatening",82,"criminal",1
"a2545688","Atheist","1","8","19","","2","1","1","1",48,669,1,"w05","threatening",59,"threatening",1
"a2545688","Atheist","1","8","19","","2","1","1","1",49,930,1,"b06","safe",204,"innocent",1
"a2545688","Atheist","1","8","19","","2","1","1","1",50,704,1,"b04","threatening",191,"threatening",1
"a2545688","Atheist","1","8","19","","2","1","1","1",51,545,1,"b12","safe",279,"trustworthy",1
"a2545688","Atheist","1","8","19","","2","1","1","1",52,508,1,"w03","safe",29,"safe",1
"a2545688","Atheist","1","8","19","","2","1","1","1",53,657,1,"w05","safe",49,"harmless",1
"a2545688","Atheist","1","8","19","","2","1","1","1",54,567,1,"b03","threatening",175,"dangerous",1
"a2545688","Atheist","1","8","19","","2","1","1","1",55,656,1,"w08","safe",89,"safe",1
"a2545688","Atheist","1","8","19","","2","1","1","1",56,406,1,"w06","safe",65,"safe",1
"a2545688","Atheist","1","8","19","","2","1","1","1",57,466,1,"w08","threatening",95,"threatening",1
"a2545688","Atheist","1","8","19","","2","1","1","1",58,497,1,"b08","safe",231,"trustworthy",1
"a2545688","Atheist","1","8","19","","2","1","1","1",59,685,1,"b11","safe",269,"safe",1
"a2545688","Atheist","1","8","19","","2","1","1","1",60,557,1,"b11","safe",264,"innocent",1
"a2545688","Atheist","1","8","19","","2","1","1","1",61,534,1,"b04","safe",185,"safe",1
"a2545688","Atheist","1","8","19","","2","1","1","1",62,563,1,"b08","threatening",236,"hostile",1
"a2545688","Atheist","1","8","19","","2","1","1","1",63,557,1,"w05","threatening",58,"criminal",1
"a2545688","Atheist","1","8","19","","2","1","1","1",64,546,1,"w08","safe",84,"innocent",1
"a2545688","Atheist","1","8","19","","2","1","1","1",65,658,1,"b12","safe",277,"harmless",1
"a2545688","Atheist","1","8","19","","2","1","1","1",66,608,1,"w05","threatening",55,"dangerous",1
"a2545688","Atheist","1","8","19","","2","1","1","1",67,567,1,"b06","safe",208,"peaceful",1
"a2545688","Atheist","1","8","19","","2","1","1","1",68,497,1,"w04","threatening",42,"violent",1
"a2545688","Atheist","1","8","19","","2","1","1","1",69,578,1,"w12","threatening",143,"threatening",1
"a2545688","Atheist","1","8","19","","2","1","1","1",70,522,1,"b07","safe",220,"peaceful",1
"a2545688","Atheist","1","8","19","","2","1","1","1",71,527,1,"w02","threatening",21,"aggressive",1
"a2545688","Atheist","1","8","19","","2","1","1","1",72,517,1,"w11","safe",123,"trustworthy",1
"a2545688","Atheist","1","8","19","","2","1","1","1",73,498,1,"w06","threatening",67,"dangerous",1
"a2545688","Atheist","1","8","19","","2","1","1","1",74,460,1,"w04","safe",36,"innocent",1
"a2545688","Atheist","1","8","19","","2","1","1","1",75,495,1,"b02","safe",159,"trustworthy",1
"a2545688","Atheist","1","8","19","","2","1","1","1",76,478,1,"w06","threatening",71,"threatening",1
"a2545688","Atheist","1","8","19","","2","1","1","1",77,544,1,"b10","safe",255,"trustworthy",1
"a2545688","Atheist","1","8","19","","2","1","1","1",78,498,1,"b04","safe",182,"friendly",1
"a2545688","Atheist","1","8","19","","2","1","1","1",79,459,1,"w03","safe",24,"innocent",1
"a2545688","Atheist","1","8","19","","2","1","1","1",80,556,1,"w07","threatening",79,"dangerous",1
"a2545688","Atheist","1","8","19","","2","1","1","1",81,447,0,"b06","threatening",212,"hostile",1
"a2545688","Atheist","1","8","19","","2","1","1","1",82,494,1,"w05","safe",53,"safe",1
"a2545688","Atheist","1","8","19","","2","1","1","1",83,528,1,"w06","safe",63,"trustworthy",1
"a2545688","Atheist","1","8","19","","2","1","1","1",84,533,1,"b09","safe",242,"friendly",1
"a2545688","Atheist","1","8","19","","2","1","1","1",85,502,1,"w11","threatening",126,"violent",1
"a2545688","Atheist","1","8","19","","2","1","1","1",86,547,1,"w08","threatening",91,"dangerous",1
"a2545688","Atheist","1","8","19","","2","1","1","1",87,438,1,"w03","safe",28,"peaceful",1
"a2545688","Atheist","1","8","19","","2","1","1","1",88,504,1,"b07","safe",216,"innocent",1
"a2545688","Atheist","1","8","19","","2","1","1","1",89,506,1,"w08","threatening",94,"criminal",1
"a2545688","Atheist","1","8","19","","2","1","1","1",90,481,1,"w12","safe",132,"innocent",1
"a2545688","Atheist","1","8","19","","2","1","1","1",91,522,1,"b05","threatening",200,"hostile",1
"a2545688","Atheist","1","8","19","","2","1","1","1",92,723,1,"w04","threatening",46,"criminal",1
"a2545688","Atheist","1","8","19","","2","1","1","1",93,495,1,"w03","threatening",32,"hostile",1
"a2545688","Atheist","1","8","19","","2","1","1","1",94,481,1,"w10","safe",111,"trustworthy",1
"a2545688","Atheist","1","8","19","","2","1","1","1",95,500,1,"b08","safe",233,"safe",1
"a2545688","Atheist","1","8","19","","2","1","1","1",96,652,0,"w02","safe",13,"harmless",1
"a2545688","Atheist","1","8","19","","2","1","1","1",97,458,1,"w01","threatening",7,"dangerous",1
"a2545688","Atheist","1","8","19","","2","1","1","1",98,604,1,"b02","safe",157,"harmless",1
"a2545688","Atheist","1","8","19","","2","1","1","1",99,745,1,"b01","threatening",151,"dangerous",1
"a2545688","Atheist","1","8","19","","2","1","1","1",100,537,1,"w01","safe",0,"innocent",1
"a2545688","Atheist","1","8","19","","2","1","1","1",101,516,1,"w01","threatening",10,"criminal",1
"a2545688","Atheist","1","8","19","","2","1","1","1",102,485,1,"w12","safe",135,"trustworthy",1
"a2545688","Atheist","1","8","19","","2","1","1","1",103,514,1,"w09","safe",99,"trustworthy",1
"a2545688","Atheist","1","8","19","","2","1","1","1",104,517,1,"w10","safe",109,"harmless",1
"a2545688","Atheist","1","8","19","","2","1","1","1",105,575,1,"w12","threatening",138,"violent",1
"a2545688","Atheist","1","8","19","","2","1","1","1",106,483,1,"b03","safe",173,"safe",1
"a2545688","Atheist","1","8","19","","2","1","1","1",107,524,1,"b03","safe",170,"friendly",1
"a2545688","Atheist","1","8","19","","2","1","1","1",108,464,1,"w11","safe",122,"friendly",1
"a2545688","Atheist","1","8","19","","2","1","1","1",109,444,1,"b02","threatening",166,"criminal",1
"a2545688","Atheist","1","8","19","","2","1","1","1",110,402,0,"b03","threatening",179,"threatening",1
"a2545688","Atheist","1","8","19","","2","1","1","1",111,416,1,"b12","threatening",282,"violent",1
"a2545688","Atheist","1","8","19","","2","1","1","1",112,571,0,"w07","threatening",80,"hostile",1
"a2545688","Atheist","1","8","19","","2","1","1","1",113,545,1,"w04","safe",39,"trustworthy",1
"a2545688","Atheist","1","8","19","","2","1","1","1",114,495,1,"b10","safe",257,"safe",1
"a2545688","Atheist","1","8","19","","2","1","1","1",115,384,1,"b05","safe",197,"safe",1
"a2545688","Atheist","1","8","19","","2","1","1","1",116,550,1,"w12","threatening",142,"criminal",1
"a2545688","Atheist","1","8","19","","2","1","1","1",117,934,1,"b08","safe",232,"peaceful",1
"a2545688","Atheist","1","8","19","","2","1","1","1",118,0,0,"w07","safe",73,"harmless",0
"a2545688","Atheist","1","8","19","","2","1","1","1",119,416,1,"b07","safe",217,"harmless",1
"a2545688","Atheist","1","8","19","","2","1","1","1",120,508,1,"b07","threatening",224,"hostile",1
"a2545688","Atheist","1","8","19","","2","1","1","1",121,549,1,"w11","safe",121,"harmless",1
"a2545688","Atheist","1","8","19","","2","1","1","1",122,485,1,"b01","threatening",153,"aggressive",1
"a2545688","Atheist","1","8","19","","2","1","1","1",123,433,1,"w08","safe",87,"trustworthy",1
"a2545688","Atheist","1","8","19","","2","1","1","1",124,425,1,"w08","safe",86,"friendly",1
"a2545688","Atheist","1","8","19","","2","1","1","1",125,462,1,"b09","safe",244,"peaceful",1
"a2545688","Atheist","1","8","19","","2","1","1","1",126,364,0,"b12","threatening",287,"threatening",1
"a2545688","Atheist","1","8","19","","2","1","1","1",127,388,1,"w06","safe",64,"peaceful",1
"a2545688","Atheist","1","8","19","","2","1","1","1",128,543,1,"w04","safe",37,"harmless",1
"a2545688","Atheist","1","8","19","","2","1","1","1",129,492,1,"b05","safe",192,"innocent",1
"a2545688","Atheist","1","8","19","","2","1","1","1",130,481,0,"b01","threatening",155,"threatening",1
"a2545688","Atheist","1","8","19","","2","1","1","1",131,508,1,"b04","threatening",188,"hostile",1
"a2545688","Atheist","1","8","19","","2","1","1","1",132,519,1,"b01","safe",147,"trustworthy",1
"a2545688","Atheist","1","8","19","","2","1","1","1",133,537,1,"w01","threatening",11,"threatening",1
"a2545688","Atheist","1","8","19","","2","1","1","1",134,521,1,"b05","safe",193,"harmless",1
"a2545688","Atheist","1","8","19","","2","1","1","1",135,535,1,"b06","threatening",210,"violent",1
"a2545688","Atheist","1","8","19","","2","1","1","1",136,484,1,"b12","safe",276,"innocent",1
"a2545688","Atheist","1","8","19","","2","1","1","1",137,615,1,"b11","threatening",271,"dangerous",1
"a2545688","Atheist","1","8","19","","2","1","1","1",138,460,1,"w09","safe",100,"peaceful",1
"a2545688","Atheist","1","8","19","","2","1","1","1",139,540,1,"b09","threatening",247,"dangerous",1
"a2545688","Atheist","1","8","19","","2","1","1","1",140,383,1,"b12","safe",281,"safe",1
"a2545688","Atheist","1","8","19","","2","1","1","1",141,456,1,"b10","threatening",263,"threatening",1
"a2545688","Atheist","1","8","19","","2","1","1","1",142,605,1,"b12","threatening",283,"dangerous",1
"a2545688","Atheist","1","8","19","","2","1","1","1",143,505,1,"w02","safe",16,"peaceful",1
"a2545688","Atheist","1","8","19","","2","1","1","1",144,504,1,"w08","threatening",90,"violent",1
"a2545688","Atheist","1","8","19","","2","1","1","1",145,501,1,"w07","safe",75,"trustworthy",1
"a2545688","Atheist","1","8","19","","2","1","1","1",146,490,1,"b12","threatening",285,"aggressive",1
"a2545688","Atheist","1","8","19","","2","1","1","1",147,436,0,"w05","threatening",56,"hostile",1
"a2545688","Atheist","1","8","19","","2","1","1","1",148,507,1,"b02","safe",158,"friendly",1
"a2545688","Atheist","1","8","19","","2","1","1","1",149,521,1,"w02","threatening",18,"violent",1
"a2545688","Atheist","1","8","19","","2","1","1","1",150,538,1,"w03","threatening",31,"dangerous",1
"a2545688","Atheist","1","8","19","","2","1","1","1",151,615,1,"w09","threatening",107,"threatening",1
"a2545688","Atheist","1","8","19","","2","1","1","1",152,569,1,"b04","safe",181,"harmless",1
"a2545688","Atheist","1","8","19","","2","1","1","1",153,520,1,"w09","safe",96,"innocent",1
"a2545688","Atheist","1","8","19","","2","1","1","1",154,542,1,"w05","threatening",57,"aggressive",1
"a2545688","Atheist","1","8","19","","2","1","1","1",155,498,0,"w10","threatening",116,"hostile",1
"a2545688","Atheist","1","8","19","","2","1","1","1",156,552,1,"w03","threatening",35,"threatening",1
"a2545688","Atheist","1","8","19","","2","1","1","1",157,516,1,"w01","safe",1,"harmless",1
"a2545688","Atheist","1","8","19","","2","1","1","1",158,534,1,"w10","safe",113,"safe",1
"a2545688","Atheist","1","8","19","","2","1","1","1",159,572,1,"w03","safe",26,"friendly",1
"a2545688","Atheist","1","8","19","","2","1","1","1",160,468,1,"b03","threatening",174,"violent",1
"a2545688","Atheist","1","8","19","","2","1","1","1",161,458,1,"w12","safe",136,"peaceful",1
"a2545688","Atheist","1","8","19","","2","1","1","1",162,506,1,"b10","threatening",261,"aggressive",1
"a2545688","Atheist","1","8","19","","2","1","1","1",163,540,1,"w04","threatening",44,"hostile",1
"a2545688","Atheist","1","8","19","","2","1","1","1",164,519,1,"w06","safe",60,"innocent",1
"a2545688","Atheist","1","8","19","","2","1","1","1",165,441,1,"b09","threatening",249,"aggressive",1
"a2545688","Atheist","1","8","19","","2","1","1","1",166,524,1,"w09","threatening",104,"hostile",1
"a2545688","Atheist","1","8","19","","2","1","1","1",167,524,1,"b12","safe",278,"friendly",1
"a2545688","Atheist","1","8","19","","2","1","1","1",168,484,1,"b10","threatening",260,"hostile",1
"a2545688","Atheist","1","8","19","","2","1","1","1",169,542,1,"b01","threatening",154,"criminal",1
"a2545688","Atheist","1","8","19","","2","1","1","1",170,580,1,"b11","safe",265,"harmless",1
"a2545688","Atheist","1","8","19","","2","1","1","1",171,492,1,"b11","threatening",275,"threatening",1
"a2545688","Atheist","1","8","19","","2","1","1","1",172,520,1,"b02","threatening",165,"aggressive",1
"a2545688","Atheist","1","8","19","","2","1","1","1",173,495,1,"w09","threatening",105,"aggressive",1
"a2545688","Atheist","1","8","19","","2","1","1","1",174,446,1,"w09","safe",101,"safe",1
"a2545688","Atheist","1","8","19","","2","1","1","1",175,657,1,"w03","threatening",30,"violent",1
"a2545688","Atheist","1","8","19","","2","1","1","1",176,522,1,"b04","safe",184,"peaceful",1
"a2545688","Atheist","1","8","19","","2","1","1","1",177,492,1,"b11","safe",268,"peaceful",1
"a2545688","Atheist","1","8","19","","2","1","1","1",178,560,1,"b05","threatening",202,"criminal",1
"a2545688","Atheist","1","8","19","","2","1","1","1",179,640,1,"w10","threatening",117,"aggressive",1
"a2545688","Atheist","1","8","19","","2","1","1","1",180,573,1,"w06","threatening",66,"violent",1
"a2545688","Atheist","1","8","19","","2","1","1","1",181,570,1,"w09","threatening",102,"violent",1
"a2545688","Atheist","1","8","19","","2","1","1","1",182,514,1,"w05","safe",51,"trustworthy",1
"a2545688","Atheist","1","8","19","","2","1","1","1",183,508,1,"b01","safe",148,"peaceful",1
"a2545688","Atheist","1","8","19","","2","1","1","1",184,492,1,"b06","safe",206,"friendly",1
"a2545688","Atheist","1","8","19","","2","1","1","1",185,694,0,"w11","threatening",130,"criminal",1
"a2545688","Atheist","1","8","19","","2","1","1","1",186,542,1,"b10","threatening",259,"dangerous",1
"a2545688","Atheist","1","8","19","","2","1","1","1",187,579,1,"w04","safe",40,"peaceful",1
"a2545688","Atheist","1","8","19","","2","1","1","1",188,535,1,"w02","threatening",20,"hostile",1
"a2545688","Atheist","1","8","19","","2","1","1","1",189,525,1,"w01","safe",4,"peaceful",1
"a2545688","Atheist","1","8","19","","2","1","1","1",190,731,1,"w07","threatening",83,"threatening",1
"a2545688","Atheist","1","8","19","","2","1","1","1",191,403,1,"b01","safe",149,"safe",1
"a2545688","Atheist","1","8","19","","2","1","1","1",192,538,1,"b09","threatening",251,"threatening",1
"a2545688","Atheist","1","8","19","","2","1","1","1",193,530,1,"b01","safe",144,"innocent",1
"a2545688","Atheist","1","8","19","","2","1","1","1",194,486,1,"w01","safe",3,"trustworthy",1
"a2545688","Atheist","1","8","19","","2","1","1","1",195,522,1,"b03","safe",171,"trustworthy",1
"a2545688","Atheist","1","8","19","","2","1","1","1",196,407,0,"b02","safe",161,"safe",1
"a2545688","Atheist","1","8","19","","2","1","1","1",197,471,1,"b02","threatening",164,"hostile",1
"a2545688","Atheist","1","8","19","","2","1","1","1",198,489,1,"b06","threatening",213,"aggressive",1
"a2545688","Atheist","1","8","19","","2","1","1","1",199,782,0,"b09","threatening",248,"hostile",1
"a2545688","Atheist","1","8","19","","2","1","1","1",200,441,1,"w08","safe",88,"peaceful",1
"a2545688","Atheist","1","8","19","","2","1","1","1",201,490,1,"w02","threatening",23,"threatening",1
"a2545688","Atheist","1","8","19","","2","1","1","1",202,482,1,"b05","safe",194,"friendly",1
"a2545688","Atheist","1","8","19","","2","1","1","1",203,391,1,"b08","safe",230,"friendly",1
"a2545688","Atheist","1","8","19","","2","1","1","1",204,622,1,"w03","safe",25,"harmless",1
"a2545688","Atheist","1","8","19","","2","1","1","1",205,502,0,"w12","threatening",140,"hostile",1
"a2545688","Atheist","1","8","19","","2","1","1","1",206,511,1,"w11","safe",124,"peaceful",1
"a2545688","Atheist","1","8","19","","2","1","1","1",207,566,1,"b08","safe",228,"innocent",1
"a2545688","Atheist","1","8","19","","2","1","1","1",208,470,1,"w07","threatening",78,"violent",1
"a2545688","Atheist","1","8","19","","2","1","1","1",209,527,0,"b12","safe",280,"peaceful",1
"a2545688","Atheist","1","8","19","","2","1","1","1",210,560,1,"b11","threatening",270,"violent",1
"a2545688","Atheist","1","8","19","","2","1","1","1",211,573,1,"w06","threatening",70,"criminal",1
"a2545688","Atheist","1","8","19","","2","1","1","1",212,522,1,"b02","threatening",167,"threatening",1
"a2545688","Atheist","1","8","19","","2","1","1","1",213,445,1,"b02","safe",156,"innocent",1
"a2545688","Atheist","1","8","19","","2","1","1","1",214,505,1,"b10","threatening",258,"violent",1
"a2545688","Atheist","1","8","19","","2","1","1","1",215,499,1,"w07","safe",76,"peaceful",1
"a2545688","Atheist","1","8","19","","2","1","1","1",216,507,1,"w03","threatening",33,"aggressive",1
"a2545688","Atheist","1","8","19","","2","1","1","1",217,517,1,"b08","threatening",238,"criminal",1
"a2545688","Atheist","1","8","19","","2","1","1","1",218,497,1,"b03","safe",172,"peaceful",1
"a2545688","Atheist","1","8","19","","2","1","1","1",219,561,1,"w04","threatening",47,"threatening",1
"a2545688","Atheist","1","8","19","","2","1","1","1",220,452,1,"b05","threatening",203,"threatening",1
"a2545688","Atheist","1","8","19","","2","1","1","1",221,467,1,"w04","safe",41,"safe",1
"a2545688","Atheist","1","8","19","","2","1","1","1",222,617,1,"w05","safe",48,"innocent",1
"a2545688","Atheist","1","8","19","","2","1","1","1",223,447,1,"w01","threatening",9,"aggressive",1
"a2545688","Atheist","1","8","19","","2","1","1","1",224,409,1,"w07","safe",72,"innocent",1
"a2545688","Atheist","1","8","19","","2","1","1","1",225,572,1,"w02","threatening",19,"dangerous",1
"a2545688","Atheist","1","8","19","","2","1","1","1",226,618,1,"b04","threatening",190,"criminal",1
"a2545688","Atheist","1","8","19","","2","1","1","1",227,462,1,"b07","safe",219,"trustworthy",1
"a2545688","Atheist","1","8","19","","2","1","1","1",228,477,1,"w10","threatening",114,"violent",1
"a2545688","Atheist","1","8","19","","2","1","1","1",229,526,1,"b01","threatening",152,"hostile",1
"a2545688","Atheist","1","8","19","","2","1","1","1",230,388,0,"w10","threatening",118,"criminal",1
"a2545688","Atheist","1","8","19","","2","1","1","1",231,459,0,"b05","safe",196,"peaceful",1
"a2545688","Atheist","1","8","19","","2","1","1","1",232,502,1,"b12","threatening",284,"hostile",1
"a2545688","Atheist","1","8","19","","2","1","1","1",233,501,1,"b12","threatening",286,"criminal",1
"a2545688","Atheist","1","8","19","","2","1","1","1",234,478,1,"w11","safe",125,"safe",1
"a2545688","Atheist","1","8","19","","2","1","1","1",235,661,1,"b06","safe",205,"harmless",1
"a2545688","Atheist","1","8","19","","2","1","1","1",236,497,1,"b05","threatening",199,"dangerous",1
"a2545688","Atheist","1","8","19","","2","1","1","1",237,424,1,"b07","threatening",222,"violent",1
"a2545688","Atheist","1","8","19","","2","1","1","1",238,586,0,"b09","threatening",250,"criminal",1
"a2545688","Atheist","1","8","19","","2","1","1","1",239,641,1,"b02","threatening",163,"dangerous",1
"a2545688","Atheist","1","8","19","","2","1","1","1",240,525,1,"b03","safe",168,"innocent",1
"a2545688","Atheist","1","8","19","","2","1","1","1",241,592,1,"b06","safe",207,"trustworthy",1
"a2545688","Atheist","1","8","19","","2","1","1","1",242,662,1,"w01","threatening",6,"violent",1
"a2545688","Atheist","1","8","19","","2","1","1","1",243,512,1,"b08","threatening",237,"aggressive",1
"a2545688","Atheist","1","8","19","","2","1","1","1",244,552,1,"b11","safe",267,"trustworthy",1
"a2545688","Atheist","1","8","19","","2","1","1","1",245,618,0,"b03","threatening",178,"criminal",1
"a2545688","Atheist","1","8","19","","2","1","1","1",246,786,1,"b08","threatening",234,"violent",1
"a2545688","Atheist","1","8","19","","2","1","1","1",247,479,1,"w12","safe",134,"friendly",1
"a2545688","Atheist","1","8","19","","2","1","1","1",248,707,0,"w10","threatening",119,"threatening",1
"a2545688","Atheist","1","8","19","","2","1","1","1",249,498,1,"w12","safe",137,"safe",1
"a2545688","Atheist","1","8","19","","2","1","1","1",250,513,1,"b07","threatening",227,"threatening",1
"a2545688","Atheist","1","8","19","","2","1","1","1",251,546,1,"w05","safe",50,"friendly",1
"a2545688","Atheist","1","8","19","","2","1","1","1",252,557,1,"w05","safe",52,"peaceful",1
"a2545688","Atheist","1","8","19","","2","1","1","1",253,490,1,"b09","safe",240,"innocent",1
"a2545688","Atheist","1","8","19","","2","1","1","1",254,421,1,"b02","threatening",162,"violent",1
"a2545688","Atheist","1","8","19","","2","1","1","1",255,435,1,"b09","safe",245,"safe",1
"a2545688","Atheist","1","8","19","","2","1","1","1",256,482,1,"b07","threatening",226,"criminal",1
"a2545688","Atheist","1","8","19","","2","1","1","1",257,651,1,"w11","threatening",131,"threatening",1
"a2545688","Atheist","1","8","19","","2","1","1","1",258,574,1,"b11","threatening",273,"aggressive",1
"a2545688","Atheist","1","8","19","","2","1","1","1",259,501,1,"w08","threatening",92,"hostile",1
"a2545688","Atheist","1","8","19","","2","1","1","1",260,563,1,"b10","safe",256,"peaceful",1
"a2545688","Atheist","1","8","19","","2","1","1","1",261,512,1,"w03","threatening",34,"criminal",1
"a2545688","Atheist","1","8","19","","2","1","1","1",262,856,1,"b07","safe",221,"safe",1
"a2545688","Atheist","1","8","19","","2","1","1","1",263,680,1,"w08","safe",85,"harmless",1
"a2545688","Atheist","1","8","19","","2","1","1","1",264,558,1,"b10","threatening",262,"criminal",1
"a2545688","Atheist","1","8","19","","2","1","1","1",265,618,1,"w01","safe",5,"safe",1
"a2545688","Atheist","1","8","19","","2","1","1","1",266,557,1,"b03","threatening",176,"hostile",1
"a2545688","Atheist","1","8","19","","2","1","1","1",267,513,0,"b03","safe",169,"harmless",1
"a2545688","Atheist","1","8","19","","2","1","1","1",268,605,1,"w08","threatening",93,"aggressive",1
"a2545688","Atheist","1","8","19","","2","1","1","1",269,554,1,"w06","threatening",69,"aggressive",1
"a2545688","Atheist","1","8","19","","2","1","1","1",270,551,1,"b11","threatening",272,"hostile",1
"a2545688","Atheist","1","8","19","","2","1","1","1",271,440,1,"w01","safe",2,"friendly",1
"a2545688","Atheist","1","8","19","","2","1","1","1",272,571,1,"b09","safe",241,"harmless",1
"a2545688","Atheist","1","8","19","","2","1","1","1",273,736,1,"b07","safe",218,"friendly",1
"a2545688","Atheist","1","8","19","","2","1","1","1",274,511,1,"w02","safe",12,"innocent",1
"a2545688","Atheist","1","8","19","","2","1","1","1",275,515,1,"w07","safe",77,"safe",1
"a2545688","Atheist","1","8","19","","2","1","1","1",276,495,1,"w09","safe",98,"friendly",1
"a2545688","Atheist","1","8","19","","2","1","1","1",277,528,1,"b01","threatening",150,"violent",1
"a2545688","Atheist","1","8","19","","2","1","1","1",278,616,0,"w11","threatening",127,"dangerous",1
"a2545688","Atheist","1","8","19","","2","1","1","1",279,688,1,"w12","threatening",139,"dangerous",1
"a2545688","Atheist","1","8","19","","2","1","1","1",280,433,1,"b04","threatening",187,"dangerous",1
"a2545688","Atheist","1","8","19","","2","1","1","1",281,614,1,"b04","threatening",186,"violent",1
"a2545688","Atheist","1","8","19","","2","1","1","1",282,424,1,"b08","threatening",235,"dangerous",1
"a2545688","Atheist","1","8","19","","2","1","1","1",283,571,1,"b05","safe",195,"trustworthy",1
"a2545688","Atheist","1","8","19","","2","1","1","1",284,637,1,"w06","safe",62,"friendly",1
"a2545688","Atheist","1","8","19","","2","1","1","1",285,690,1,"w04","threatening",45,"aggressive",1
"a2545688","Atheist","1","8","19","","2","1","1","1",286,457,1,"w07","threatening",81,"aggressive",1
"a2545688","Atheist","1","8","19","","2","1","1","1",287,628,1,"w04","safe",38,"friendly",1
"a2545688","Atheist","1","8","19","","2","1","1","1",288,511,1,"b08","threatening",239,"threatening",1
"6d97100a","Agnostic","1","5","25","","3","1","1","3",1,926,1,"b01","threatening",153,"aggressive",1
"6d97100a","Agnostic","1","5","25","","3","1","1","3",2,665,1,"b11","safe",269,"safe",1
"6d97100a","Agnostic","1","5","25","","3","1","1","3",3,857,1,"b05","threatening",199,"dangerous",1
"6d97100a","Agnostic","1","5","25","","3","1","1","3",4,0,0,"b04","safe",181,"harmless",0
"6d97100a","Agnostic","1","5","25","","3","1","1","3",5,911,1,"b11","threatening",271,"dangerous",1
"6d97100a","Agnostic","1","5","25","","3","1","1","3",6,738,1,"w12","safe",134,"friendly",1
"6d97100a","Agnostic","1","5","25","","3","1","1","3",7,744,1,"b03","safe",172,"peaceful",1
"6d97100a","Agnostic","1","5","25","","3","1","1","3",8,539,1,"b10","safe",255,"trustworthy",1
"6d97100a","Agnostic","1","5","25","","3","1","1","3",9,536,1,"w04","safe",40,"peaceful",1
"6d97100a","Agnostic","1","5","25","","3","1","1","3",10,728,1,"b02","safe",160,"peaceful",1
"6d97100a","Agnostic","1","5","25","","3","1","1","3",11,917,1,"w07","threatening",82,"criminal",1
"6d97100a","Agnostic","1","5","25","","3","1","1","3",12,746,1,"w08","threatening",92,"hostile",1
"6d97100a","Agnostic","1","5","25","","3","1","1","3",13,524,1,"b08","safe",231,"trustworthy",1
"6d97100a","Agnostic","1","5","25","","3","1","1","3",14,741,1,"b12","safe",281,"safe",1
"6d97100a","Agnostic","1","5","25","","3","1","1","3",15,727,1,"b08","threatening",239,"threatening",1
"6d97100a","Agnostic","1","5","25","","3","1","1","3",16,741,1,"w08","safe",87,"trustworthy",1
"6d97100a","Agnostic","1","5","25","","3","1","1","3",17,736,1,"w07","threatening",78,"violent",1
"6d97100a","Agnostic","1","5","25","","3","1","1","3",18,932,0,"w03","threatening",33,"aggressive",1
"6d97100a","Agnostic","1","5","25","","3","1","1","3",19,727,1,"b06","safe",209,"safe",1
"6d97100a","Agnostic","1","5","25","","3","1","1","3",20,910,0,"w11","safe",122,"friendly",1
"6d97100a","Agnostic","1","5","25","","3","1","1","3",21,849,0,"b06","safe",204,"innocent",1
"6d97100a","Agnostic","1","5","25","","3","1","1","3",22,727,1,"w05","safe",49,"harmless",1
"6d97100a","Agnostic","1","5","25","","3","1","1","3",23,733,1,"b06","safe",207,"trustworthy",1
"6d97100a","Agnostic","1","5","25","","3","1","1","3",24,0,0,"b09","threatening",251,"threatening",0
"6d97100a","Agnostic","1","5","25","","3","1","1","3",25,834,1,"b02","threatening",164,"hostile",1
"6d97100a","Agnostic","1","5","25","","3","1","1","3",26,746,1,"w01","threatening",10,"criminal",1
"6d97100a","Agnostic","1","5","25","","3","1","1","3",27,905,1,"w06","safe",61,"harmless",1
"6d97100a","Agnostic","1","5","25","","3","1","1","3",28,725,1,"w03","safe",26,"friendly",1
"6d97100a","Agnostic","1","5","25","","3","1","1","3",29,0,0,"b05","safe",196,"peaceful",0
"6d97100a","Agnostic","1","5","25","","3","1","1","3",30,773,1,"w11","threatening",129,"aggressive",1
"6d97100a","Agnostic","1","5","25","","3","1","1","3",31,822,1,"w07","safe",72,"innocent",1
"6d97100a","Agnostic","1","5","25","","3","1","1","3",32,730,1,"b10","threatening",259,"dangerous",1
"6d97100a","Agnostic","1","5","25","","3","1","1","3",33,759,1,"b02","safe",161,"safe",1
"6d97100a","Agnostic","1","5","25","","3","1","1","3",34,734,1,"w02","safe",15,"trustworthy",1
"6d97100a","Agnostic","1","5","25","","3","1","1","3",35,745,1,"w09","safe",96,"innocent",1
"6d97100a","Agnostic","1","5","25","","3","1","1","3",36,533,1,"w08","safe",86,"friendly",1
"6d97100a","Agnostic","1","5","25","","3","1","1","3",37,740,1,"b05","threatening",200,"hostile",1
"6d97100a","Agnostic","1","5","25","","3","1","1","3",38,566,1,"b04","safe",182,"friendly",1
"6d97100a","Agnostic","1","5","25","","3","1","1","3",39,491,1,"b02","safe",158,"friendly",1
"6d97100a","Agnostic","1","5","25","","3","1","1","3",40,503,1,"w03","safe",24,"innocent",1
"6d97100a","Agnostic","1","5","25","","3","1","1","3",41,732,1,"w10","threatening",114,"violent",1
"6d97100a","Agnostic","1","5","25","","3","1","1","3",42,743,1,"w01","safe",1,"harmless",1
"6d97100a","Agnostic","1","5","25","","3","1","1","3",43,550,1,"w09","safe",100,"peaceful",1
"6d97100a","Agnostic","1","5","25","","3","1","1","3",44,736,1,"w07","threatening",79,"dangerous",1
"6d97100a","Agnostic","1","5","25","","3","1","1","3",45,728,1,"b05","safe",195,"trustworthy",1
"6d97100a","Agnostic","1","5","25","","3","1","1","3",46,904,1,"b08","safe",229,"harmless",1
"6d97100a","Agnostic","1","5","25","","3","1","1","3",47,750,1,"b08","threatening",237,"aggressive",1
"6d97100a","Agnostic","1","5","25","","3","1","1","3",48,727,1,"w12","threatening",142,"criminal",1
"6d97100a","Agnostic","1","5","25","","3","1","1","3",49,730,1,"b03","threatening",176,"hostile",1
"6d97100a","Agnostic","1","5","25","","3","1","1","3",50,735,1,"w05","safe",52,"peaceful",1
"6d97100a","Agnostic","1","5","25","","3","1","1","3",51,728,1,"w01","safe",4,"peaceful",1
"6d97100a","Agnostic","1","5","25","","3","1","1","3",52,785,1,"w11","safe",121,"harmless",1
"6d97100a","Agnostic","1","5","25","","3","1","1","3",53,733,1,"w12","safe",135,"trustworthy",1
"6d97100a","Agnostic","1","5","25","","3","1","1","3",54,727,1,"b11","threatening",274,"criminal",1
"6d97100a","Agnostic","1","5","25","","3","1","1","3",55,729,1,"b08","safe",233,"safe",1
"6d97100a","Agnostic","1","5","25","","3","1","1","3",56,717,1,"w11","threatening",127,"dangerous",1
"6d97100a","Agnostic","1","5","25","","3","1","1","3",57,737,1,"b04","threatening",187,"dangerous",1
"6d97100a","Agnostic","1","5","25","","3","1","1","3",58,531,0,"w02","threatening",19,"dangerous",1
"6d97100a","Agnostic","1","5","25","","3","1","1","3",59,599,1,"w11","threatening",131,"threatening",1
"6d97100a","Agnostic","1","5","25","","3","1","1","3",60,741,1,"b05","safe",194,"friendly",1
"6d97100a","Agnostic","1","5","25","","3","1","1","3",61,743,1,"w06","threatening",69,"aggressive",1
"6d97100a","Agnostic","1","5","25","","3","1","1","3",62,762,1,"b03","safe",170,"friendly",1
"6d97100a","Agnostic","1","5","25","","3","1","1","3",63,730,1,"b02","threatening",163,"dangerous",1
"6d97100a","Agnostic","1","5","25","","3","1","1","3",64,508,1,"w01","safe",5,"safe",1
"6d97100a","Agnostic","1","5","25","","3","1","1","3",65,740,1,"w05","safe",53,"safe",1
"6d97100a","Agnostic","1","5","25","","3","1","1","3",66,735,1,"b11","threatening",270,"violent",1
"6d97100a","Agnostic","1","5","25","","3","1","1","3",67,736,1,"b03","threatening",177,"aggressive",1
"6d97100a","Agnostic","1","5","25","","3","1","1","3",68,892,1,"b02","safe",157,"harmless",1
"6d97100a","Agnostic","1","5","25","","3","1","1","3",69,776,1,"b04","threatening",191,"threatening",1
"6d97100a","Agnostic","1","5","25","","3","1","1","3",70,583,1,"b12","threatening",285,"aggressive",1
"6d97100a","Agnostic","1","5","25","","3","1","1","3",71,729,1,"b05","threatening",201,"aggressive",1
"6d97100a","Agnostic","1","5","25","","3","1","1","3",72,0,0,"b08","safe",228,"innocent",0
"6d97100a","Agnostic","1","5","25","","3","1","1","3",73,737,1,"w12","safe",136,"peaceful",1
"6d97100a","Agnostic","1","5","25","","3","1","1","3",74,748,0,"b09","threatening",249,"aggressive",1
"6d97100a","Agnostic","1","5","25","","3","1","1","3",75,740,1,"w02","threatening",22,"criminal",1
"6d97100a","Agnostic","1","5","25","","3","1","1","3",76,728,1,"b07","safe",216,"innocent",1
"6d97100a","Agnostic","1","5","25","","3","1","1","3",77,739,1,"b01","safe",146,"friendly",1
"6d97100a","Agnostic","1","5","25","","3","1","1","3",78,727,1,"w01","threatening",8,"hostile",1
"6d97100a","Agnostic","1","5","25","","3","1","1","3",79,478,1,"b02","safe",159,"trustworthy",1
"6d97100a","Agnostic","1","5","25","","3","1","1","3",80,566,1,"b08","threatening",234,"violent",1
"6d97100a","Agnostic","1","5","25","","3","1","1","3",81,507,1,"b09","safe",242,"friendly",1
"6d97100a","Agnostic","1","5","25","","3","1","1","3",82,505,1,"w10","safe",112,"peaceful",1
"6d97100a","Agnostic","1","5","25","","3","1","1","3",83,729,1,"w02","threatening",18,"violent",1
"6d97100a","Agnostic","1","5","25","","3","1","1","3",84,535,1,"b07","safe",220,"peaceful",1
"6d97100a","Agnostic","1","5","25","","3","1","1","3",85,780,0,"b03","safe",168,"innocent",1
"6d97100a","Agnostic","1","5","25","","3","1","1","3",86,731,1,"b08","threatening",235,"dangerous",1
"6d97100a","Agnostic","1","5","25","","3","1","1","3",87,742,1,"w12","threatening",138,"violent",1
"6d97100a","Agnostic","1","5","25","","3","1","1","3",88,726,1,"w06","safe",60,"innocent",1
"6d97100a","Agnostic","1","5","25","","3","1","1","3",89,746,1,"w07","safe",76,"peaceful",1
"6d97100a","Agnostic","1","5","25","","3","1","1","3",90,729,1,"w08","threatening",93,"aggressive",1
"6d97100a","Agnostic","1","5","25","","3","1","1","3",91,521,1,"b07","safe",218,"friendly",1
"6d97100a","Agnostic","1","5","25","","3","1","1","3",92,732,1,"b12","safe",280,"peaceful",1
"6d97100a","Agnostic","1","5","25","","3","1","1","3",93,744,1,"b12","threatening",283,"dangerous",1
"6d97100a","Agnostic","1","5","25","","3","1","1","3",94,841,1,"b06","threatening",212,"hostile",1
"6d97100a","Agnostic","1","5","25","","3","1","1","3",95,0,0,"w02","safe",13,"harmless",0
"6d97100a","Agnostic","1","5","25","","3","1","1","3",96,776,1,"w02","threatening",20,"hostile",1
"6d97100a","Agnostic","1","5","25","","3","1","1","3",97,734,1,"b09","safe",243,"trustworthy",1
"6d97100a","Agnostic","1","5","25","","3","1","1","3",98,548,1,"b10","safe",254,"friendly",1
"6d97100a","Agnostic","1","5","25","","3","1","1","3",99,732,1,"w04","threatening",43,"dangerous",1
"6d97100a","Agnostic","1","5","25","","3","1","1","3",100,742,1,"w05","safe",50,"friendly",1
"6d97100a","Agnostic","1","5","25","","3","1","1","3",101,547,1,"b08","threatening",238,"criminal",1
"6d97100a","Agnostic","1","5","25","","3","1","1","3",102,737,1,"w01","safe",2,"friendly",1
"6d97100a","Agnostic","1","5","25","","3","1","1","3",103,470,0,"b09","safe",241,"harmless",1
"6d97100a","Agnostic","1","5","25","","3","1","1","3",104,736,1,"w04","threatening",42,"violent",1
"6d97100a","Agnostic","1","5","25","","3","1","1","3",105,432,0,"b03","threatening",178,"criminal",1
"6d97100a","Agnostic","1","5","25","","3","1","1","3",106,568,1,"b03","safe",173,"safe",1
"6d97100a","Agnostic","1","5","25","","3","1","1","3",107,745,1,"w09","safe",98,"friendly",1
"6d97100a","Agnostic","1","5","25","","3","1","1","3",108,526,0,"w09","safe",97,"harmless",1
"6d97100a","Agnostic","1","5","25","","3","1","1","3",109,733,1,"b03","threatening",175,"dangerous",1
"6d97100a","Agnostic","1","5","25","","3","1","1","3",110,528,1,"b01","safe",149,"safe",1
"6d97100a","Agnostic","1","5","25","","3","1","1","3",111,731,1,"b11","threatening",272,"hostile",1
"6d97100a","Agnostic","1","5","25","","3","1","1","3",112,731,1,"b03","threatening",174,"violent",1
"6d97100a","Agnostic","1","5","25","","3","1","1","3",113,734,1,"w01","threatening",7,"dangerous",1
"6d97100a","Agnostic","1","5","25","","3","1","1","3",114,734,1,"w03","threatening",30,"violent",1
"6d97100a","Agnostic","1","5","25","","3","1","1","3",115,728,1,"w07","threatening",83,"threatening",1
"6d97100a","Agnostic","1","5","25","","3","1","1","3",116,730,1,"b06","threatening",213,"aggressive",1
"6d97100a","Agnostic","1","5","25","","3","1","1","3",117,521,1,"w08","threatening",90,"violent",1
"6d97100a","Agnostic","1","5","25","","3","1","1","3",118,543,1,"w05","threatening",55,"dangerous",1
"6d97100a","Agnostic","1","5","25","","3","1","1","3",119,523,1,"b10","threatening",260,"hostile",1
"6d97100a","Agnostic","1","5","25","","3","1","1","3",120,738,1,"b05","safe",192,"innocent",1
"6d97100a","Agnostic","1","5","25","","3","1","1","3",121,732,1,"b12","threatening",286,"criminal",1
"6d97100a","Agnostic","1","5","25","","3","1","1","3",122,726,1,"b03","threatening",179,"threatening",1
"6d97100a","Agnostic","1","5","25","","3","1","1","3",123,515,1,"b04","safe",185,"safe",1
"6d97100a","Agnostic","1","5","25","","3","1","1","3",124,790,1,"b12","safe",276,"innocent",1
"6d97100a","Agnostic","1","5","25","","3","1","1","3",125,732,1,"w03","safe",29,"safe",1
"6d97100a","Agnostic","1","5","25","","3","1","1","3",126,726,1,"w04","threatening",44,"hostile",1
"6d97100a","Agnostic","1","5","25","","3","1","1","3",127,733,1,"b01","threatening",154,"criminal",1
"6d97100a","Agnostic","1","5","25","","3","1","1","3",128,731,1,"w02","threatening",23,"threatening",1
"6d97100a","Agnostic","1","5","25","","3","1","1","3",129,733,1,"b04","threatening",189,"aggressive",1
"6d97100a","Agnostic","1","5","25","","3","1","1","3",130,501,1,"b04","threatening",186,"violent",1
"6d97100a","Agnostic","1","5","25","","3","1","1","3",131,731,1,"w10","threatening",117,"aggressive",1
"6d97100a","Agnostic","1","5","25","","3","1","1","3",132,734,1,"b01","safe",144,"innocent",1
"6d97100a","Agnostic","1","5","25","","3","1","1","3",133,837,1,"b12","threatening",284,"hostile",1
"6d97100a","Agnostic","1","5","25","","3","1","1","3",134,518,1,"w08","threatening",95,"threatening",1
"6d97100a","Agnostic","1","5","25","","3","1","1","3",135,735,1,"b07","threatening",226,"criminal",1
"6d97100a","Agnostic","1","5","25","","3","1","1","3",136,737,1,"w10","threatening",119,"threatening",1
"6d97100a","Agnostic","1","5","25","","3","1","1","3",137,739,1,"w12","safe",137,"safe",1
"6d97100a","Agnostic","1","5","25","","3","1","1","3",138,730,0,"b09","threatening",246,"violent",1
"6d97100a","Agnostic","1","5","25","","3","1","1","3",139,813,1,"w04","safe",37,"harmless",1
"6d97100a","Agnostic","1","5","25","","3","1","1","3",140,736,1,"b11","threatening",275,"threatening",1
"6d97100a","Agnostic","1","5","25","","3","1","1","3",141,725,1,"b11","safe",267,"trustworthy",1
"6d97100a","Agnostic","1","5","25","","3","1","1","3",142,726,1,"b11","safe",265,"harmless",1
"6d97100a","Agnostic","1","5","25","","3","1","1","3",143,734,1,"b12","safe",279,"trustworthy",1
"6d97100a","Agnostic","1","5","25","","3","1","1","3",144,505,1,"w12","safe",133,"harmless",1
"6d97100a","Agnostic","1","5","25","","3","1","1","3",145,742,1,"b06","threatening",210,"violent",1
"6d97100a","Agnostic","1","5","25","","3","1","1","3",146,743,1,"b04","threatening",190,"criminal",1
"6d97100a","Agnostic","1","5","25","","3","1","1","3",147,746,1,"b10","threatening",261,"aggressive",1
"6d97100a","Agnostic","1","5","25","","3","1","1","3",148,491,1,"w06","safe",65,"safe",1
"6d97100a","Agnostic","1","5","25","","3","1","1","3",149,738,1,"w09","threatening",106,"criminal",1
"6d97100a","Agnostic","1","5","25","","3","1","1","3",150,728,1,"b10","threatening",263,"threatening",1
"6d97100a","Agnostic","1","5","25","","3","1","1","3",151,491,1,"w10","safe",110,"friendly",1
"6d97100a","Agnostic","1","5","25","","3","1","1","3",152,450,1,"w04","threatening",47,"threatening",1
"6d97100a","Agnostic","1","5","25","","3","1","1","3",153,591,1,"w09","threatening",103,"dangerous",1
"6d97100a","Agnostic","1","5","25","","3","1","1","3",154,532,1,"w10","threatening",118,"criminal",1
"6d97100a","Agnostic","1","5","25","","3","1","1","3",155,552,1,"w09","threatening",107,"threatening",1
"6d97100a","Agnostic","1","5","25","","3","1","1","3",156,494,1,"w09","threatening",105,"aggressive",1
"6d97100a","Agnostic","1","5","25","","3","1","1","3",157,731,0,"w10","safe",109,"harmless",1
"6d97100a","Agnostic","1","5","25","","3","1","1","3",158,488,1,"w01","safe",3,"trustworthy",1
"6d97100a","Agnostic","1","5","25","","3","1","1","3",159,597,1,"b12","threatening",282,"violent",1
"6d97100a","Agnostic","1","5","25","","3","1","1","3",160,727,1,"w03","threatening",32,"hostile",1
"6d97100a","Agnostic","1","5","25","","3","1","1","3",161,729,1,"b08","safe",232,"peaceful",1
"6d97100a","Agnostic","1","5","25","","3","1","1","3",162,508,1,"b05","threatening",202,"criminal",1
"6d97100a","Agnostic","1","5","25","","3","1","1","3",163,740,1,"b09","safe",240,"innocent",1
"6d97100a","Agnostic","1","5","25","","3","1","1","3",164,740,1,"b03","safe",171,"trustworthy",1
"6d97100a","Agnostic","1","5","25","","3","1","1","3",165,847,1,"b02","threatening",166,"criminal",1
"6d97100a","Agnostic","1","5","25","","3","1","1","3",166,518,1,"w03","threatening",31,"dangerous",1
"6d97100a","Agnostic","1","5","25","","3","1","1","3",167,732,1,"b05","threatening",198,"violent",1
"6d97100a","Agnostic","1","5","25","","3","1","1","3",168,740,1,"w12","threatening",141,"aggressive",1
"6d97100a","Agnostic","1","5","25","","3","1","1","3",169,729,1,"w02","safe",16,"peaceful",1
"6d97100a","Agnostic","1","5","25","","3","1","1","3",170,750,1,"w03","threatening",34,"criminal",1
"6d97100a","Agnostic","1","5","25","","3","1","1","3",171,733,1,"b12","safe",278,"friendly",1
"6d97100a","Agnostic","1","5","25","","3","1","1","3",172,728,1,"b08","threatening",236,"hostile",1
"6d97100a","Agnostic","1","5","25","","3","1","1","3",173,729,1,"w04","threatening",46,"criminal",1
"6d97100a","Agnostic","1","5","25","","3","1","1","3",174,528,1,"b06","safe",208,"peaceful",1
"6d97100a","Agnostic","1","5","25","","3","1","1","3",175,741,1,"b06","threatening",215,"threatening",1
"6d97100a","Agnostic","1","5","25","","3","1","1","3",176,729,1,"b12","threatening",287,"threatening",1
"6d97100a","Agnostic","1","5","25","","3","1","1","3",177,733,1,"b09","safe",244,"peaceful",1
"6d97100a","Agnostic","1","5","25","","3","1","1","3",178,744,1,"w07","safe",75,"trustworthy",1
"6d97100a","Agnostic","1","5","25","","3","1","1","3",179,737,1,"w12","threatening",143,"threatening",1
"6d97100a","Agnostic","1","5","25","","3","1","1","3",180,731,1,"w11","safe",120,"innocent",1
"6d97100a","Agnostic","1","5","25","","3","1","1","3",181,743,0,"w11","safe",123,"trustworthy",1
"6d97100a","Agnostic","1","5","25","","3","1","1","3",182,736,1,"b05","threatening",203,"threatening",1
"6d97100a","Agnostic","1","5","25","","3","1","1","3",183,535,1,"w09","safe",101,"safe",1
"6d97100a","Agnostic","1","5","25","","3","1","1","3",184,739,1,"b11","threatening",273,"aggressive",1
"6d97100a","Agnostic","1","5","25","","3","1","1","3",185,744,1,"w02","safe",17,"safe",1
"6d97100a","Agnostic","1","5","25","","3","1","1","3",186,509,1,"w08","threatening",91,"dangerous",1
"6d97100a","Agnostic","1","5","25","","3","1","1","3",187,729,1,"b09","threatening",247,"dangerous",1
"6d97100a","Agnostic","1","5","25","","3","1","1","3",188,539,1,"w01","safe",0,"innocent",1
"6d97100a","Agnostic","1","5","25","","3","1","1","3",189,740,1,"w05","threatening",59,"threatening",1
"6d97100a","Agnostic","1","5","25","","3","1","1","3",190,740,1,"b01","safe",145,"harmless",1
"6d97100a","Agnostic","1","5","25","","3","1","1","3",191,727,1,"b07","safe",219,"trustworthy",1
"6d97100a","Agnostic","1","5","25","","3","1","1","3",192,729,1,"b04","safe",180,"innocent",1
"6d97100a","Agnostic","1","5","25","","3","1","1","3",193,727,1,"w07","safe",74,"friendly",1
"6d97100a","Agnostic","1","5","25","","3","1","1","3",194,727,0,"w07","safe",73,"harmless",1
"6d97100a","Agnostic","1","5","25","","3","1","1","3",195,730,1,"b06","threatening",214,"criminal",1
"6d97100a","Agnostic","1","5","25","","3","1","1","3",196,536,1,"w07","safe",77,"safe",1
"6d97100a","Agnostic","1","5","25","","3","1","1","3",197,736,1,"w04","safe",36,"innocent",1
"6d97100a","Agnostic","1","5","25","","3","1","1","3",198,738,1,"w06","threatening",67,"dangerous",1
"6d97100a","Agnostic","1","5","25","","3","1","1","3",199,483,0,"w02","threatening",21,"aggressive",1
"6d97100a","Agnostic","1","5","25","","3","1","1","3",200,732,1,"b10","threatening",258,"violent",1
"6d97100a","Agnostic","1","5","25","","3","1","1","3",201,529,1,"w02","safe",12,"innocent",1
"6d97100a","Agnostic","1","5","25","","3","1","1","3",202,728,1,"w03","safe",28,"peaceful",1
"6d97100a","Agnostic","1","5","25","","3","1","1","3",203,517,1,"b07","threatening",222,"violent",1
"6d97100a","Agnostic","1","5","25","","3","1","1","3",204,732,1,"w09","threatening",102,"violent",1
"6d97100a","Agnostic","1","5","25","","3","1","1","3",205,530,1,"w06","safe",62,"friendly",1
"6d97100a","Agnostic","1","5","25","","3","1","1","3",206,744,1,"w12","threatening",139,"dangerous",1
"6d97100a","Agnostic","1","5","25","","3","1","1","3",207,491,1,"w05","safe",48,"innocent",1
"6d97100a","Agnostic","1","5","25","","3","1","1","3",208,733,1,"w08","threatening",94,"criminal",1
"6d97100a","Agnostic","1","5","25","","3","1","1","3",209,582,0,"w05","threatening",54,"violent",1
"6d97100a","Agnostic","1","5","25","","3","1","1","3",210,502,1,"w11","safe",124,"peaceful",1
"6d97100a","Agnostic","1","5","25","","3","1","1","3",211,730,1,"b04","threatening",188,"hostile",1
"6d97100a","Agnostic","1","5","25","","3","1","1","3",212,727,1,"b01","safe",148,"peaceful",1
"6d97100a","Agnostic","1","5","25","","3","1","1","3",213,514,0,"b07","safe",217,"harmless",1
"6d97100a","Agnostic","1","5","25","","3","1","1","3",214,908,1,"w10","threatening",115,"dangerous",1
"6d97100a","Agnostic","1","5","25","","3","1","1","3",215,358,0,"b10","threatening",262,"criminal",1
"6d97100a","Agnostic","1","5","25","","3","1","1","3",216,0,0,"b10","safe",253,"harmless",0
"6d97100a","Agnostic","1","5","25","","3","1","1","3",217,887,0,"b07","threatening",224,"hostile",1
"6d97100a","Agnostic","1","5","25","","3","1","1","3",218,0,0,"w11","threatening",130,"criminal",0
"6d97100a","Agnostic","1","5","25","","3","1","1","3",219,651,1,"b01","safe",147,"trustworthy",1
"6d97100a","Agnostic","1","5","25","","3","1","1","3",220,0,0,"b05","safe",197,"safe",0
"6d97100a","Agnostic","1","5","25","","3","1","1","3",221,726,1,"w10","threatening",116,"hostile",1
"6d97100a","Agnostic","1","5","25","","3","1","1","3",222,742,1,"w07","threatening",81,"aggressive",1
"6d97100a","Agnostic","1","5","25","","3","1","1","3",223,747,1,"b06","safe",205,"harmless",1
"6d97100a","Agnostic","1","5","25","","3","1","1","3",224,791,1,"w07","threatening",80,"hostile",1
"6d97100a","Agnostic","1","5","25","","3","1","1","3",225,721,0,"w02","safe",14,"friendly",1
"6d97100a","Agnostic","1","5","25","","3","1","1","3",226,588,1,"w04","safe",39,"trustworthy",1
"6d97100a","Agnostic","1","5","25","","3","1","1","3",227,734,1,"b11","safe",264,"innocent",1
"6d97100a","Agnostic","1","5","25","","3","1","1","3",228,527,1,"b10","safe",256,"peaceful",1
"6d97100a","Agnostic","1","5","25","","3","1","1","3",229,736,1,"w01","threatening",9,"aggressive",1
"6d97100a","Agnostic","1","5","25","","3","1","1","3",230,728,1,"w11","safe",125,"safe",1
"6d97100a","Agnostic","1","5","25","","3","1","1","3",231,728,1,"b11","safe",266,"friendly",1
"6d97100a","Agnostic","1","5","25","","3","1","1","3",232,522,1,"w05","safe",51,"trustworthy",1
"6d97100a","Agnostic","1","5","25","","3","1","1","3",233,741,1,"b07","threatening",227,"threatening",1
"6d97100a","Agnostic","1","5","25","","3","1","1","3",234,752,0,"b10","safe",252,"innocent",1
"6d97100a","Agnostic","1","5","25","","3","1","1","3",235,562,1,"b06","safe",206,"friendly",1
"6d97100a","Agnostic","1","5","25","","3","1","1","3",236,737,1,"w06","safe",63,"trustworthy",1
"6d97100a","Agnostic","1","5","25","","3","1","1","3",237,740,1,"b09","threatening",248,"hostile",1
"6d97100a","Agnostic","1","5","25","","3","1","1","3",238,728,1,"b05","safe",193,"harmless",1
"6d97100a","Agnostic","1","5","25","","3","1","1","3",239,729,1,"w08","safe",88,"peaceful",1
"6d97100a","Agnostic","1","5","25","","3","1","1","3",240,730,1,"w08","safe",89,"safe",1
"6d97100a","Agnostic","1","5","25","","3","1","1","3",241,741,1,"w12","safe",132,"innocent",1
"6d97100a","Agnostic","1","5","25","","3","1","1","3",242,728,1,"b02","threatening",162,"violent",1
"6d97100a","Agnostic","1","5","25","","3","1","1","3",243,738,0,"w11","threatening",126,"violent",1
"6d97100a","Agnostic","1","5","25","","3","1","1","3",244,797,1,"b06","threatening",211,"dangerous",1
"6d97100a","Agnostic","1","5","25","","3","1","1","3",245,735,1,"w08","safe",85,"harmless",1
"6d97100a","Agnostic","1","5","25","","3","1","1","3",246,789,1,"b11","safe",268,"peaceful",1
"6d97100a","Agnostic","1","5","25","","3","1","1","3",247,735,1,"w06","threatening",66,"violent",1
"6d97100a","Agnostic","1","5","25","","3","1","1","3",248,471,1,"w06","safe",64,"peaceful",1
"6d97100a","Agnostic","1","5","25","","3","1","1","3",249,740,1,"w03","threatening",35,"threatening",1
"6d97100a","Agnostic","1","5","25","","3","1","1","3",250,508,1,"w06","threatening",70,"criminal",1
"6d97100a","Agnostic","1","5","25","","3","1","1","3",251,731,1,"w05","threatening",57,"aggressive",1
"6d97100a","Agnostic","1","5","25","","3","1","1","3",252,484,1,"b08","safe",230,"friendly",1
"6d97100a","Agnostic","1","5","25","","3","1","1","3",253,735,1,"w09","safe",99,"trustworthy",1
"6d97100a","Agnostic","1","5","25","","3","1","1","3",254,728,1,"w12","threatening",140,"hostile",1
"6d97100a","Agnostic","1","5","25","","3","1","1","3",255,501,1,"w11","threatening",128,"hostile",1
"6d97100a","Agnostic","1","5","25","","3","1","1","3",256,518,1,"b02","threatening",167,"threatening",1
"6d97100a","Agnostic","1","5","25","","3","1","1","3",257,743,1,"b04","safe",183,"trustworthy",1
"6d97100a","Agnostic","1","5","25","","3","1","1","3",258,739,1,"b01","threatening",150,"violent",1
"6d97100a","Agnostic","1","5","25","","3","1","1","3",259,531,1,"w03","safe",27,"trustworthy",1
"6d97100a","Agnostic","1","5","25","","3","1","1","3",260,727,1,"w10","safe",113,"safe",1
"6d97100a","Agnostic","1","5","25","","3","1","1","3",261,458,1,"w04","safe",41,"safe",1
"6d97100a","Agnostic","1","5","25","","3","1","1","3",262,500,1,"w01","threatening",6,"violent",1
"6d97100a","Agnostic","1","5","25","","3","1","1","3",263,526,0,"w09","threatening",104,"hostile",1
"6d97100a","Agnostic","1","5","25","","3","1","1","3",264,607,1,"b07","threatening",225,"aggressive",1
"6d97100a","Agnostic","1","5","25","","3","1","1","3",265,528,0,"b12","safe",277,"harmless",1
"6d97100a","Agnostic","1","5","25","","3","1","1","3",266,729,1,"w03","safe",25,"harmless",1
"6d97100a","Agnostic","1","5","25","","3","1","1","3",267,733,1,"b07","threatening",223,"dangerous",1
"6d97100a","Agnostic","1","5","25","","3","1","1","3",268,741,1,"b01","threatening",155,"threatening",1
"6d97100a","Agnostic","1","5","25","","3","1","1","3",269,539,1,"b01","threatening",152,"hostile",1
"6d97100a","Agnostic","1","5","25","","3","1","1","3",270,507,1,"b10","safe",257,"safe",1
"6d97100a","Agnostic","1","5","25","","3","1","1","3",271,731,1,"w05","threatening",58,"criminal",1
"6d97100a","Agnostic","1","5","25","","3","1","1","3",272,729,1,"b03","safe",169,"harmless",1
"6d97100a","Agnostic","1","5","25","","3","1","1","3",273,463,1,"b09","safe",245,"safe",1
"6d97100a","Agnostic","1","5","25","","3","1","1","3",274,734,1,"w06","threatening",68,"hostile",1
"6d97100a","Agnostic","1","5","25","","3","1","1","3",275,728,1,"w05","threatening",56,"hostile",1
"6d97100a","Agnostic","1","5","25","","3","1","1","3",276,501,1,"w04","safe",38,"friendly",1
"6d97100a","Agnostic","1","5","25","","3","1","1","3",277,538,1,"w04","threatening",45,"aggressive",1
"6d97100a","Agnostic","1","5","25","","3","1","1","3",278,812,1,"w10","safe",111,"trustworthy",1
"6d97100a","Agnostic","1","5","25","","3","1","1","3",279,903,1,"b02","safe",156,"innocent",1
"6d97100a","Agnostic","1","5","25","","3","1","1","3",280,728,1,"b04","safe",184,"peaceful",1
"6d97100a","Agnostic","1","5","25","","3","1","1","3",281,727,1,"b02","threatening",165,"aggressive",1
"6d97100a","Agnostic","1","5","25","","3","1","1","3",282,730,1,"b07","safe",221,"safe",1
"6d97100a","Agnostic","1","5","25","","3","1","1","3",283,728,1,"b09","threatening",250,"criminal",1
"6d97100a","Agnostic","1","5","25","","3","1","1","3",284,727,1,"w06","threatening",71,"threatening",1
"6d97100a","Agnostic","1","5","25","","3","1","1","3",285,731,1,"w10","safe",108,"innocent",1
"6d97100a","Agnostic","1","5","25","","3","1","1","3",286,732,1,"w08","safe",84,"innocent",1
"6d97100a","Agnostic","1","5","25","","3","1","1","3",287,533,1,"b01","threatening",151,"dangerous",1
"6d97100a","Agnostic","1","5","25","","3","1","1","3",288,520,1,"w01","threatening",11,"threatening",1
"5317f9f4","Catholic","5","7","42","No","3","1","0","4",1,842,1,"b01","safe",147,"trustworthy",1
"5317f9f4","Catholic","5","7","42","No","3","1","0","4",2,864,1,"w04","threatening",44,"hostile",1
"5317f9f4","Catholic","5","7","42","No","3","1","0","4",3,716,1,"b09","threatening",249,"aggressive",1
"5317f9f4","Catholic","5","7","42","No","3","1","0","4",4,767,1,"b03","threatening",176,"hostile",1
"5317f9f4","Catholic","5","7","42","No","3","1","0","4",5,698,1,"w07","safe",75,"trustworthy",1
"5317f9f4","Catholic","5","7","42","No","3","1","0","4",6,785,1,"w09","threatening",102,"violent",1
"5317f9f4","Catholic","5","7","42","No","3","1","0","4",7,638,1,"b10","threatening",259,"dangerous",1
"5317f9f4","Catholic","5","7","42","No","3","1","0","4",8,699,1,"w02","safe",16,"peaceful",1
"5317f9f4","Catholic","5","7","42","No","3","1","0","4",9,616,1,"b01","threatening",155,"threatening",1
"5317f9f4","Catholic","5","7","42","No","3","1","0","4",10,845,1,"b01","threatening",150,"violent",1
"5317f9f4","Catholic","5","7","42","No","3","1","0","4",11,726,1,"b09","threatening",250,"criminal",1
"5317f9f4","Catholic","5","7","42","No","3","1","0","4",12,786,1,"b07","threatening",225,"aggressive",1
"5317f9f4","Catholic","5","7","42","No","3","1","0","4",13,705,1,"w08","threatening",92,"hostile",1
"5317f9f4","Catholic","5","7","42","No","3","1","0","4",14,738,1,"b12","threatening",282,"violent",1
"5317f9f4","Catholic","5","7","42","No","3","1","0","4",15,803,1,"b08","safe",228,"innocent",1
"5317f9f4","Catholic","5","7","42","No","3","1","0","4",16,659,1,"w12","threatening",139,"dangerous",1
"5317f9f4","Catholic","5","7","42","No","3","1","0","4",17,691,1,"b02","safe",159,"trustworthy",1
"5317f9f4","Catholic","5","7","42","No","3","1","0","4",18,683,1,"b04","threatening",188,"hostile",1
"5317f9f4","Catholic","5","7","42","No","3","1","0","4",19,848,1,"b08","threatening",239,"threatening",1
"5317f9f4","Catholic","5","7","42","No","3","1","0","4",20,731,1,"w12","threatening",143,"threatening",1
"5317f9f4","Catholic","5","7","42","No","3","1","0","4",21,742,1,"b04","threatening",191,"threatening",1
"5317f9f4","Catholic","5","7","42","No","3","1","0","4",22,694,1,"w05","threatening",58,"criminal",1
"5317f9f4","Catholic","5","7","42","No","3","1","0","4",23,657,1,"b12","threatening",284,"hostile",1
"5317f9f4","Catholic","5","7","42","No","3","1","0","4",24,784,1,"b04","threatening",187,"dangerous",1
"5317f9f4","Catholic","5","7","42","No","3","1","0","4",25,630,1,"b07","threatening",222,"violent",1
"5317f9f4","Catholic","5","7","42","No","3","1","0","4",26,726,0,"b04","safe",181,"harmless",1
"5317f9f4","Catholic","5","7","42","No","3","1","0","4",27,774,1,"b12","safe",280,"peaceful",1
"5317f9f4","Catholic","5","7","42","No","3","1","0","4",28,806,1,"b05","safe",197,"safe",1
"5317f9f4","Catholic","5","7","42","No","3","1","0","4",29,820,1,"b04","threatening",189,"aggressive",1
"5317f9f4","Catholic","5","7","42","No","3","1","0","4",30,796,1,"b12","threatening",287,"threatening",1
"5317f9f4","Catholic","5","7","42","No","3","1","0","4",31,0,0,"b11","threatening",273,"aggressive",0
"5317f9f4","Catholic","5","7","42","No","3","1","0","4",32,691,1,"b10","threatening",260,"hostile",1
"5317f9f4","Catholic","5","7","42","No","3","1","0","4",33,715,1,"w01","threatening",11,"threatening",1
"5317f9f4","Catholic","5","7","42","No","3","1","0","4",34,833,1,"b10","threatening",262,"criminal",1
"5317f9f4","Catholic","5","7","42","No","3","1","0","4",35,607,1,"w03","safe",26,"friendly",1
"5317f9f4","Catholic","5","7","42","No","3","1","0","4",36,752,1,"b02","threatening",165,"aggressive",1
"5317f9f4","Catholic","5","7","42","No","3","1","0","4",37,705,1,"w12","safe",134,"friendly",1
"5317f9f4","Catholic","5","7","42","No","3","1","0","4",38,746,1,"b08","threatening",236,"hostile",1
"5317f9f4","Catholic","5","7","42","No","3","1","0","4",39,0,0,"w01","threatening",9,"aggressive",0
"5317f9f4","Catholic","5","7","42","No","3","1","0","4",40,706,1,"b06","threatening",212,"hostile",1
"5317f9f4","Catholic","5","7","42","No","3","1","0","4",41,592,1,"w05","threatening",54,"violent",1
"5317f9f4","Catholic","5","7","42","No","3","1","0","4",42,590,1,"w06","threatening",66,"violent",1
"5317f9f4","Catholic","5","7","42","No","3","1","0","4",43,524,1,"w11","safe",124,"peaceful",1
"5317f9f4","Catholic","5","7","42","No","3","1","0","4",44,634,1,"b03","safe",173,"safe",1
"5317f9f4","Catholic","5","7","42","No","3","1","0","4",45,0,0,"w10","safe",109,"harmless",0
"5317f9f4","Catholic","5","7","42","No","3","1","0","4",46,0,0,"w06","safe",63,"trustworthy",0
"5317f9f4","Catholic","5","7","42","No","3","1","0","4",47,772,0,"w11","safe",121,"harmless",1
"5317f9f4","Catholic","5","7","42","No","3","1","0","4",48,611,1,"w09","safe",100,"peaceful",1
"5317f9f4","Catholic","5","7","42","No","3","1","0","4",49,920,1,"b03","safe",171,"trustworthy",1
"5317f9f4","Catholic","5","7","42","No","3","1","0","4",50,791,1,"b08","safe",231,"trustworthy",1
"5317f9f4","Catholic","5","7","42","No","3","1","0","4",51,674,1,"w07","threatening",80,"hostile",1
"5317f9f4","Catholic","5","7","42","No","3","1","0","4",52,678,1,"b06","safe",208,"peaceful",1
"5317f9f4","Catholic","5","7","42","No","3","1","0","4",53,609,1,"w11","safe",122,"friendly",1
"5317f9f4","Catholic","5","7","42","No","3","1","0","4",54,684,1,"w10","safe",108,"innocent",1
"5317f9f4","Catholic","5","7","42","No","3","1","0","4",55,642,1,"b12","safe",281,"safe",1
"5317f9f4","Catholic","5","7","42","No","3","1","0","4",56,669,1,"w12","threatening",141,"aggressive",1
"5317f9f4","Catholic","5","7","42","No","3","1","0","4",57,726,1,"w10","safe",113,"safe",1
"5317f9f4","Catholic","5","7","42","No","3","1","0","4",58,625,1,"w03","safe",28,"peaceful",1
"5317f9f4","Catholic","5","7","42","No","3","1","0","4",59,0,0,"b06","safe",204,"innocent",0
"5317f9f4","Catholic","5","7","42","No","3","1","0","4",60,724,1,"w04","threatening",43,"dangerous",1
"5317f9f4","Catholic","5","7","42","No","3","1","0","4",61,665,1,"w12","threatening",138,"violent",1
"5317f9f4","Catholic","5","7","42","No","3","1","0","4",62,647,1,"w08","threatening",95,"threatening",1
"5317f9f4","Catholic","5","7","42","No","3","1","0","4",63,668,1,"b09","threatening",247,"dangerous",1
"5317f9f4","Catholic","5","7","42","No","3","1","0","4",64,721,1,"b09","threatening",248,"hostile",1
"5317f9f4","Catholic","5","7","42","No","3","1","0","4",65,521,1,"w07","safe",76,"peaceful",1
"5317f9f4","Catholic","5","7","42","No","3","1","0","4",66,627,1,"w05","threatening",55,"dangerous",1
"5317f9f4","Catholic","5","7","42","No","3","1","0","4",67,867,1,"w04","safe",39,"trustworthy",1
"5317f9f4","Catholic","5","7","42","No","3","1","0","4",68,672,1,"w06","safe",60,"innocent",1
"5317f9f4","Catholic","5","7","42","No","3","1","0","4",69,764,1,"w03","threatening",32,"hostile",1
"5317f9f4","Catholic","5","7","42","No","3","1","0","4",70,730,1,"w01","safe",0,"innocent",1
"5317f9f4","Catholic","5","7","42","No","3","1","0","4",71,601,1,"b03","safe",172,"peaceful",1
"5317f9f4","Catholic","5","7","42","No","3","1","0","4",72,662,1,"b07","safe",219,"trustworthy",1
"5317f9f4","Catholic","5","7","42","No","3","1","0","4",73,856,1,"b03","safe",169,"harmless",1
"5317f9f4","Catholic","5","7","42","No","3","1","0","4",74,620,1,"b02","safe",161,"safe",1
"5317f9f4","Catholic","5","7","42","No","3","1","0","4",75,663,1,"b07","safe",221,"safe",1
"5317f9f4","Catholic","5","7","42","No","3","1","0","4",76,732,1,"b11","safe",265,"harmless",1
"5317f9f4","Catholic","5","7","42","No","3","1","0","4",77,653,1,"w08","threatening",94,"criminal",1
"5317f9f4","Catholic","5","7","42","No","3","1","0","4",78,704,1,"w11","threatening",126,"violent",1
"5317f9f4","Catholic","5","7","42","No","3","1","0","4",79,661,1,"w03","threatening",31,"dangerous",1
"5317f9f4","Catholic","5","7","42","No","3","1","0","4",80,780,1,"w04","threatening",47,"threatening",1
"5317f9f4","Catholic","5","7","42","No","3","1","0","4",81,658,1,"w06","threatening",67,"dangerous",1
"5317f9f4","Catholic","5","7","42","No","3","1","0","4",82,645,1,"w07","threatening",82,"criminal",1
"5317f9f4","Catholic","5","7","42","No","3","1","0","4",83,630,1,"b03","threatening",178,"criminal",1
"5317f9f4","Catholic","5","7","42","No","3","1","0","4",84,782,1,"w02","safe",13,"harmless",1
"5317f9f4","Catholic","5","7","42","No","3","1","0","4",85,653,1,"w08","safe",87,"trustworthy",1
"5317f9f4","Catholic","5","7","42","No","3","1","0","4",86,664,1,"w02","threatening",21,"aggressive",1
"5317f9f4","Catholic","5","7","42","No","3","1","0","4",87,670,1,"w11","safe",125,"safe",1
"5317f9f4","Catholic","5","7","42","No","3","1","0","4",88,731,1,"b11","safe",269,"safe",1
"5317f9f4","Catholic","5","7","42","No","3","1","0","4",89,664,1,"b05","safe",195,"trustworthy",1
"5317f9f4","Catholic","5","7","42","No","3","1","0","4",90,782,1,"b09","threatening",251,"threatening",1
"5317f9f4","Catholic","5","7","42","No","3","1","0","4",91,742,1,"b10","threatening",258,"violent",1
"5317f9f4","Catholic","5","7","42","No","3","1","0","4",92,818,1,"w11","threatening",127,"dangerous",1
"5317f9f4","Catholic","5","7","42","No","3","1","0","4",93,783,1,"b02","safe",156,"innocent",1
"5317f9f4","Catholic","5","7","42","No","3","1","0","4",94,795,1,"b02","safe",157,"harmless",1
"5317f9f4","Catholic","5","7","42","No","3","1","0","4",95,740,1,"w02","safe",15,"trustworthy",1
"5317f9f4","Catholic","5","7","42","No","3","1","0","4",96,937,1,"b11","threatening",274,"criminal",1
"5317f9f4","Catholic","5","7","42","No","3","1","0","4",97,0,0,"w12","threatening",142,"criminal",0
"5317f9f4","Catholic","5","7","42","No","3","1","0","4",98,613,1,"b06","threatening",214,"criminal",1
"5317f9f4","Catholic","5","7","42","No","3","1","0","4",99,665,1,"b03","threatening",175,"dangerous",1
"5317f9f4","Catholic","5","7","42","No","3","1","0","4",100,826,1,"b01","threatening",154,"criminal",1
"5317f9f4","Catholic","5","7","42","No","3","1","0","4",101,701,1,"b12","threatening",286,"criminal",1
"5317f9f4","Catholic","5","7","42","No","3","1","0","4",102,623,1,"w08","safe",86,"friendly",1
"5317f9f4","Catholic","5","7","42","No","3","1","0","4",103,0,0,"b05","threatening",201,"aggressive",0
"5317f9f4","Catholic","5","7","42","No","3","1","0","4",104,903,1,"b06","safe",209,"safe",1
"5317f9f4","Catholic","5","7","42","No","3","1","0","4",105,932,1,"w09","safe",99,"trustworthy",1
"5317f9f4","Catholic","5","7","42","No","3","1","0","4",106,676,1,"w09","safe",98,"friendly",1
"5317f9f4","Catholic","5","7","42","No","3","1","0","4",107,746,1,"w07","safe",73,"harmless",1
"5317f9f4","Catholic","5","7","42","No","3","1","0","4",108,644,1,"w03","safe",29,"safe",1
"5317f9f4","Catholic","5","7","42","No","3","1","0","4",109,627,1,"w02","threatening",18,"violent",1
"5317f9f4","Catholic","5","7","42","No","3","1","0","4",110,769,1,"b12","safe",279,"trustworthy",1
"5317f9f4","Catholic","5","7","42","No","3","1","0","4",111,0,0,"w08","safe",85,"harmless",0
"5317f9f4","Catholic","5","7","42","No","3","1","0","4",112,675,1,"w05","safe",51,"trustworthy",1
"5317f9f4","Catholic","5","7","42","No","3","1","0","4",113,720,1,"w08","safe",88,"peaceful",1
"5317f9f4","Catholic","5","7","42","No","3","1","0","4",114,687,1,"w01","threatening",8,"hostile",1
"5317f9f4","Catholic","5","7","42","No","3","1","0","4",115,811,1,"w01","safe",5,"safe",1
"5317f9f4","Catholic","5","7","42","No","3","1","0","4",116,801,1,"b03","threatening",179,"threatening",1
"5317f9f4","Catholic","5","7","42","No","3","1","0","4",117,757,1,"w09","safe",101,"safe",1
"5317f9f4","Catholic","5","7","42","No","3","1","0","4",118,677,1,"b10","safe",255,"trustworthy",1
"5317f9f4","Catholic","5","7","42","No","3","1","0","4",119,590,1,"b10","safe",257,"safe",1
"5317f9f4","Catholic","5","7","42","No","3","1","0","4",120,531,1,"w12","safe",137,"safe",1
"5317f9f4","Catholic","5","7","42","No","3","1","0","4",121,675,1,"b10","threatening",261,"aggressive",1
"5317f9f4","Catholic","5","7","42","No","3","1","0","4",122,791,1,"b06","threatening",215,"threatening",1
"5317f9f4","Catholic","5","7","42","No","3","1","0","4",123,760,1,"b12","threatening",285,"aggressive",1
"5317f9f4","Catholic","5","7","42","No","3","1","0","4",124,646,1,"w09","safe",96,"innocent",1
"5317f9f4","Catholic","5","7","42","No","3","1","0","4",125,652,1,"b07","safe",220,"peaceful",1
"5317f9f4","Catholic","5","7","42","No","3","1","0","4",126,783,1,"b10","safe",252,"innocent",1
"5317f9f4","Catholic","5","7","42","No","3","1","0","4",127,707,1,"b01","threatening",153,"aggressive",1
"5317f9f4","Catholic","5","7","42","No","3","1","0","4",128,0,0,"w05","safe",48,"innocent",0
"5317f9f4","Catholic","5","7","42","No","3","1","0","4",129,601,0,"w11","threatening",131,"threatening",1
"5317f9f4","Catholic","5","7","42","No","3","1","0","4",130,550,1,"w05","safe",49,"harmless",1
"5317f9f4","Catholic","5","7","42","No","3","1","0","4",131,652,1,"w11","threatening",130,"criminal",1
"5317f9f4","Catholic","5","7","42","No","3","1","0","4",132,573,1,"w10","threatening",118,"criminal",1
"5317f9f4","Catholic","5","7","42","No","3","1","0","4",133,580,1,"b07","threatening",223,"dangerous",1
"5317f9f4","Catholic","5","7","42","No","3","1","0","4",134,621,1,"b12","threatening",283,"dangerous",1
"5317f9f4","Catholic","5","7","42","No","3","1","0","4",135,764,1,"b08","safe",232,"peaceful",1
"5317f9f4","Catholic","5","7","42","No","3","1","0","4",136,606,1,"w04","safe",41,"safe",1
"5317f9f4","Catholic","5","7","42","No","3","1","0","4",137,698,1,"b05","threatening",198,"violent",1
"5317f9f4","Catholic","5","7","42","No","3","1","0","4",138,694,1,"w07","threatening",79,"dangerous",1
"5317f9f4","Catholic","5","7","42","No","3","1","0","4",139,576,1,"b10","safe",254,"friendly",1
"5317f9f4","Catholic","5","7","42","No","3","1","0","4",140,750,1,"w06","threatening",69,"aggressive",1
"5317f9f4","Catholic","5","7","42","No","3","1","0","4",141,700,1,"b06","safe",205,"harmless",1
"5317f9f4","Catholic","5","7","42","No","3","1","0","4",142,604,1,"w07","threatening",81,"aggressive",1
"5317f9f4","Catholic","5","7","42","No","3","1","0","4",143,705,1,"w04","threatening",42,"violent",1
"5317f9f4","Catholic","5","7","42","No","3","1","0","4",144,629,1,"w10","threatening",115,"dangerous",1
"5317f9f4","Catholic","5","7","42","No","3","1","0","4",145,620,1,"w02","safe",14,"friendly",1
"5317f9f4","Catholic","5","7","42","No","3","1","0","4",146,666,1,"b09","safe",244,"peaceful",1
"5317f9f4","Catholic","5","7","42","No","3","1","0","4",147,636,1,"w09","threatening",107,"threatening",1
"5317f9f4","Catholic","5","7","42","No","3","1","0","4",148,830,1,"b05","safe",192,"innocent",1
"5317f9f4","Catholic","5","7","42","No","3","1","0","4",149,762,1,"b05","safe",196,"peaceful",1
"5317f9f4","Catholic","5","7","42","No","3","1","0","4",150,714,1,"w09","threatening",105,"aggressive",1
"5317f9f4","Catholic","5","7","42","No","3","1","0","4",151,850,1,"w07","safe",72,"innocent",1
"5317f9f4","Catholic","5","7","42","No","3","1","0","4",152,0,0,"b11","threatening",270,"violent",0
"5317f9f4","Catholic","5","7","42","No","3","1","0","4",153,850,1,"w11","safe",120,"innocent",1
"5317f9f4","Catholic","5","7","42","No","3","1","0","4",154,770,1,"w01","safe",2,"friendly",1
"5317f9f4","Catholic","5","7","42","No","3","1","0","4",155,775,1,"w07","threatening",83,"threatening",1
"5317f9f4","Catholic","5","7","42","No","3","1","0","4",156,691,1,"b06","safe",206,"friendly",1
"5317f9f4","Catholic","5","7","42","No","3","1","0","4",157,619,1,"w01","safe",3,"trustworthy",1
