{
	"AutoApprovalTime": "2017-11-24T22:34:29Z",
	"AssignmentId": "ksanchez",
	"WorkerId": "ksanchez",
	"answers": {
		"practice_order": [],
		"trial_order": []
		"practice_order": []
		"keyBindings": {
			"p": "threatening"
			"q": "safe"
		}
		"faceInput": "w12"
		"wordInput": "hostile"
		"faceType": 140
		"wordType": "threatening"
		"data": [{
			"trial_num": 1
			"race": 35
			"word": "threatening"
			"raceStim": "w03"
			"wordStim": "threatening"
			"correctResponse": "threatening"
			"userResponse": "safe"
			"correct": 0
			"rt": 586
			"responded": 1
		},{
			"trial_num": 2
			"race": 260
			"word": "threatening"
			"raceStim": "b10"
			"wordStim": "hostile"
			"correctResponse": "threatening"
			"userResponse": "safe"
			"correct": 0
			"rt": 534
			"responded": 1
		},{
			"trial_num": 3
			"race": 34
			"word": "threatening"
			"raceStim": "w03"
			"wordStim": "criminal"
			"correctResponse": "threatening"
			"userResponse": "safe"
			"correct": 0
			"rt": 580
			"responded": 1
		},{
			"trial_num": 4
			"race": 185
			"word": "safe"
			"raceStim": "b04"
			"wordStim": "safe"
			"correctResponse": "safe"
			"userResponse": "threatening"
			"correct": 0
			"rt": 767
			"responded": 1
		},{
			"trial_num": 5
			"race": 259
			"word": "threatening"
			"raceStim": "b10"
			"wordStim": "dangerous"
			"correctResponse": "threatening"
			"userResponse": "safe"
			"correct": 0
			"rt": 504
			"responded": 1
		},{
			"trial_num": 6
			"race": 164
			"word": "threatening"
			"raceStim": "b02"
			"wordStim": "hostile"
			"correctResponse": "threatening"
			"userResponse": "safe"
			"correct": 0
			"rt": 932
			"responded": 1
		},{
			"trial_num": 7
			"race": 121
			"word": "safe"
			"raceStim": "w11"
			"wordStim": "harmless"
			"correctResponse": "safe"
			"userResponse": "threatening"
			"correct": 0
			"rt": 740
			"responded": 1
		},{
			"trial_num": 8
			"race": 9
			"word": "threatening"
			"raceStim": "w01"
			"wordStim": "aggressive"
			"correctResponse": "threatening"
			"userResponse": "safe"
			"correct": 0
			"rt": 660
			"responded": 1
		},{
			"trial_num": 9
			"race": 265
			"word": "safe"
			"raceStim": "b11"
			"wordStim": "harmless"
			"correctResponse": "safe"
			"userResponse": "threatening"
			"correct": 0
			"rt": 866
			"responded": 1
		},{
			"trial_num": 10
			"race": 45
			"word": "threatening"
			"raceStim": "w04"
			"wordStim": "aggressive"
			"correctResponse": "threatening"
			"userResponse": "safe"
			"correct": 0
			"rt": 706
			"responded": 1
		},{
			"trial_num": 11
			"race": 137
			"word": "safe"
			"raceStim": "w12"
			"wordStim": "safe"
			"correctResponse": "safe"
			"userResponse": "threatening"
			"correct": 0
			"rt": 628
			"responded": 1
		},{
			"trial_num": 12
			"race": 20
			"word": "threatening"
			"raceStim": "w02"
			"wordStim": "hostile"
			"correctResponse": "threatening"
			"userResponse": "safe"
			"correct": 0
			"rt": 651
			"responded": 1
		},{
			"trial_num": 13
			"race": 88
			"word": "safe"
			"raceStim": "w08"
			"wordStim": "peaceful"
			"correctResponse": "safe"
			"userResponse": "threatening"
			"correct": 0
			"rt": 742
			"responded": 1
		},{
			"trial_num": 14
			"race": 204
			"word": "safe"
			"raceStim": "b06"
			"wordStim": "innocent"
			"correctResponse": "safe"
			"userResponse": "threatening"
			"correct": 0
			"rt": 709
			"responded": 1
		},{
			"trial_num": 15
			"race": 193
			"word": "safe"
			"raceStim": "b05"
			"wordStim": "harmless"
			"correct": 0
			"rt": 0
			"responded": 0
		},{
			"trial_num": 16
			"race": 272
			"word": "threatening"
			"raceStim": "b11"
			"wordStim": "hostile"
			"correctResponse": "threatening"
			"userResponse": "safe"
			"correct": 0
			"rt": 764
			"responded": 1
		},{
			"trial_num": 17
			"race": 225
			"word": "threatening"
			"raceStim": "b07"
			"wordStim": "aggressive"
			"correctResponse": "threatening"
			"userResponse": "safe"
			"correct": 0
			"rt": 704
			"responded": 1
		},{
			"trial_num": 18
			"race": 205
			"word": "safe"
			"raceStim": "b06"
			"wordStim": "harmless"
			"correctResponse": "safe"
			"userResponse": "safe"
			"correct": 1
			"rt": 597
			"responded": 1
		},{
			"trial_num": 19
			"race": 266
			"word": "safe"
			"raceStim": "b11"
			"wordStim": "friendly"
			"correctResponse": "safe"
			"userResponse": "threatening"
			"correct": 0
			"rt": 735
			"responded": 1
		},{
			"trial_num": 20
			"race": 147
			"word": "safe"
			"raceStim": "b01"
			"wordStim": "trustworthy"
			"correctResponse": "safe"
			"userResponse": "threatening"
			"correct": 0
			"rt": 596
			"responded": 1
		},{
			"trial_num": 21
			"race": 79
			"word": "threatening"
			"raceStim": "w07"
			"wordStim": "dangerous"
			"correctResponse": "threatening"
			"userResponse": "safe"
			"correct": 0
			"rt": 649
			"responded": 1
		},{
			"trial_num": 22
			"race": 270
			"word": "threatening"
			"raceStim": "b11"
			"wordStim": "violent"
			"correctResponse": "threatening"
			"userResponse": "safe"
			"correct": 0
			"rt": 581
			"responded": 1
		},{
			"trial_num": 23
			"race": 166
			"word": "threatening"
			"raceStim": "b02"
			"wordStim": "criminal"
			"correctResponse": "threatening"
			"userResponse": "safe"
			"correct": 0
			"rt": 491
			"responded": 1
		},{
			"trial_num": 24
			"race": 64
			"word": "safe"
			"raceStim": "w06"
			"wordStim": "peaceful"
			"correctResponse": "safe"
			"userResponse": "threatening"
			"correct": 0
			"rt": 591
			"responded": 1
		},{
			"trial_num": 25
			"race": 230
			"word": "safe"
			"raceStim": "b08"
			"wordStim": "friendly"
			"correctResponse": "safe"
			"userResponse": "threatening"
			"correct": 0
			"rt": 828
			"responded": 1
		},{
			"trial_num": 26
			"race": 12
			"word": "safe"
			"raceStim": "w02"
			"wordStim": "innocent"
			"correctResponse": "safe"
			"userResponse": "threatening"
			"correct": 0
			"rt": 637
			"responded": 1
		},{
			"trial_num": 27
			"race": 72
			"word": "safe"
			"raceStim": "w07"
			"wordStim": "innocent"
			"correctResponse": "safe"
			"userResponse": "safe"
			"correct": 1
			"rt": 728
			"responded": 1
		},{
			"trial_num": 28
			"race": 48
			"word": "safe"
			"raceStim": "w05"
			"wordStim": "innocent"
			"correctResponse": "safe"
			"userResponse": "safe"
			"correct": 1
			"rt": 719
			"responded": 1
		},{
			"trial_num": 29
			"race": 170
			"word": "safe"
			"raceStim": "b03"
			"wordStim": "friendly"
			"correct": 0
			"rt": 0
			"responded": 0
		},{
			"trial_num": 30
			"race": 250
			"word": "threatening"
			"raceStim": "b09"
			"wordStim": "criminal"
			"correctResponse": "threatening"
			"userResponse": "safe"
			"correct": 0
			"rt": 573
			"responded": 1
		},{
			"trial_num": 31
			"race": 57
			"word": "threatening"
			"raceStim": "w05"
			"wordStim": "aggressive"
			"correctResponse": "threatening"
			"userResponse": "threatening"
			"correct": 1
			"rt": 685
			"responded": 1
		},{
			"trial_num": 32
			"race": 14
			"word": "safe"
			"raceStim": "w02"
			"wordStim": "friendly"
			"correctResponse": "safe"
			"userResponse": "threatening"
			"correct": 0
			"rt": 727
			"responded": 1
		},{
			"trial_num": 33
			"race": 231
			"word": "safe"
			"raceStim": "b08"
			"wordStim": "trustworthy"
			"correctResponse": "safe"
			"userResponse": "threatening"
			"correct": 0
			"rt": 603
			"responded": 1
		},{
			"trial_num": 34
			"race": 99
			"word": "safe"
			"raceStim": "w09"
			"wordStim": "trustworthy"
			"correctResponse": "safe"
			"userResponse": "threatening"
			"correct": 0
			"rt": 516
			"responded": 1
		},{
			"trial_num": 35
			"race": 263
			"word": "threatening"
			"raceStim": "b10"
			"wordStim": "threatening"
			"correctResponse": "threatening"
			"userResponse": "safe"
			"correct": 0
			"rt": 584
			"responded": 1
		},{
			"trial_num": 36
			"race": 68
			"word": "threatening"
			"raceStim": "w06"
			"wordStim": "hostile"
			"correctResponse": "threatening"
			"userResponse": "safe"
			"correct": 0
			"rt": 692
			"responded": 1
		},{
			"trial_num": 37
			"race": 28
			"word": "safe"
			"raceStim": "w03"
			"wordStim": "peaceful"
			"correctResponse": "safe"
			"userResponse": "threatening"
			"correct": 0
			"rt": 516
			"responded": 1
		},{
			"trial_num": 38
			"race": 212
			"word": "threatening"
			"raceStim": "b06"
			"wordStim": "hostile"
			"correctResponse": "threatening"
			"userResponse": "safe"
			"correct": 0
			"rt": 515
			"responded": 1
		},{
			"trial_num": 39
			"race": 217
			"word": "safe"
			"raceStim": "b07"
			"wordStim": "harmless"
			"correctResponse": "safe"
			"userResponse": "threatening"
			"correct": 0
			"rt": 720
			"responded": 1
		},{
			"trial_num": 40
			"race": 264
			"word": "safe"
			"raceStim": "b11"
			"wordStim": "innocent"
			"correctResponse": "safe"
			"userResponse": "threatening"
			"correct": 0
			"rt": 797
			"responded": 1
		},{
			"trial_num": 41
			"race": 38
			"word": "safe"
			"raceStim": "w04"
			"wordStim": "friendly"
			"correctResponse": "safe"
			"userResponse": "threatening"
			"correct": 0
			"rt": 637
			"responded": 1
		},{
			"trial_num": 42
			"race": 187
			"word": "threatening"
			"raceStim": "b04"
			"wordStim": "dangerous"
			"correctResponse": "threatening"
			"userResponse": "safe"
			"correct": 0
			"rt": 627
			"responded": 1
		},{
			"trial_num": 43
			"race": 2
			"word": "safe"
			"raceStim": "w01"
			"wordStim": "friendly"
			"correctResponse": "safe"
			"userResponse": "threatening"
			"correct": 0
			"rt": 638
			"responded": 1
		},{
			"trial_num": 44
			"race": 275
			"word": "threatening"
			"raceStim": "b11"
			"wordStim": "threatening"
			"correctResponse": "threatening"
			"userResponse": "safe"
			"correct": 0
			"rt": 901
			"responded": 1
		},{
			"trial_num": 45
			"race": 36
			"word": "safe"
			"raceStim": "w04"
			"wordStim": "innocent"
			"correctResponse": "safe"
			"userResponse": "threatening"
			"correct": 0
			"rt": 628
			"responded": 1
		},{
			"trial_num": 46
			"race": 238
			"word": "threatening"
			"raceStim": "b08"
			"wordStim": "criminal"
			"correctResponse": "threatening"
			"userResponse": "safe"
			"correct": 0
			"rt": 625
			"responded": 1
		},{
			"trial_num": 47
			"race": 53
			"word": "safe"
			"raceStim": "w05"
			"wordStim": "safe"
			"correctResponse": "safe"
			"userResponse": "threatening"
			"correct": 0
			"rt": 635
			"responded": 1
		},{
			"trial_num": 48
			"race": 152
			"word": "threatening"
			"raceStim": "b01"
			"wordStim": "hostile"
			"correctResponse": "threatening"
			"userResponse": "safe"
			"correct": 0
			"rt": 549
			"responded": 1
		},{
			"trial_num": 49
			"race": 26
			"word": "safe"
			"raceStim": "w03"
			"wordStim": "friendly"
			"correct": 0
			"rt": 0
			"responded": 0
		},{
			"trial_num": 50
			"race": 254
			"word": "safe"
			"raceStim": "b10"
			"wordStim": "friendly"
			"correct": 0
			"rt": 0
			"responded": 0
		},{
			"trial_num": 51
			"race": 39
			"word": "safe"
			"raceStim": "w04"
			"wordStim": "trustworthy"
			"correctResponse": "safe"
			"userResponse": "threatening"
			"correct": 0
			"rt": 640
			"responded": 1
		},{
			"trial_num": 52
			"race": 156
			"word": "safe"
			"raceStim": "b02"
			"wordStim": "innocent"
			"correctResponse": "safe"
			"userResponse": "threatening"
			"correct": 0
			"rt": 572
			"responded": 1
		},{
			"trial_num": 53
			"race": 93
			"word": "threatening"
			"raceStim": "w08"
			"wordStim": "aggressive"
			"correctResponse": "threatening"
			"userResponse": "safe"
			"correct": 0
			"rt": 478
			"responded": 1
		},{
			"trial_num": 54
			"race": 255
			"word": "safe"
			"raceStim": "b10"
			"wordStim": "trustworthy"
			"correctResponse": "safe"
			"userResponse": "threatening"
			"correct": 0
			"rt": 597
			"responded": 1
		},{
			"trial_num": 55
			"race": 227
			"word": "threatening"
			"raceStim": "b07"
			"wordStim": "threatening"
			"correctResponse": "threatening"
			"userResponse": "safe"
			"correct": 0
			"rt": 796
			"responded": 1
		},{
			"trial_num": 56
			"race": 249
			"word": "threatening"
			"raceStim": "b09"
			"wordStim": "aggressive"
			"correctResponse": "threatening"
			"userResponse": "safe"
			"correct": 0
			"rt": 697
			"responded": 1
		},{
			"trial_num": 57
			"race": 33
			"word": "threatening"
			"raceStim": "w03"
			"wordStim": "aggressive"
			"correctResponse": "threatening"
			"userResponse": "safe"
			"correct": 0
			"rt": 559
			"responded": 1
		},{
			"trial_num": 58
			"race": 201
			"word": "threatening"
			"raceStim": "b05"
			"wordStim": "aggressive"
			"correctResponse": "threatening"
			"userResponse": "safe"
			"correct": 0
			"rt": 549
			"responded": 1
		},{
			"trial_num": 59
			"race": 211
			"word": "threatening"
			"raceStim": "b06"
			"wordStim": "dangerous"
			"correctResponse": "threatening"
			"userResponse": "safe"
			"correct": 0
			"rt": 729
			"responded": 1
		},{
			"trial_num": 60
			"race": 213
			"word": "threatening"
			"raceStim": "b06"
			"wordStim": "aggressive"
			"correctResponse": "threatening"
			"userResponse": "safe"
			"correct": 0
			"rt": 646
			"responded": 1
		},{
			"trial_num": 61
			"race": 58
			"word": "threatening"
			"raceStim": "w05"
			"wordStim": "criminal"
			"correctResponse": "threatening"
			"userResponse": "safe"
			"correct": 0
			"rt": 569
			"responded": 1
		},{
			"trial_num": 62
			"race": 138
			"word": "threatening"
			"raceStim": "w12"
			"wordStim": "violent"
			"correctResponse": "threatening"
			"userResponse": "safe"
			"correct": 0
			"rt": 580
			"responded": 1
		},{
			"trial_num": 63
			"race": 232
			"word": "safe"
			"raceStim": "b08"
			"wordStim": "peaceful"
			"correctResponse": "safe"
			"userResponse": "threatening"
			"correct": 0
			"rt": 650
			"responded": 1
		},{
			"trial_num": 64
			"race": 247
			"word": "threatening"
			"raceStim": "b09"
			"wordStim": "dangerous"
			"correctResponse": "threatening"
			"userResponse": "safe"
			"correct": 0
			"rt": 785
			"responded": 1
		},{
			"trial_num": 65
			"race": 18
			"word": "threatening"
			"raceStim": "w02"
			"wordStim": "violent"
			"correctResponse": "threatening"
			"userResponse": "safe"
			"correct": 0
			"rt": 616
			"responded": 1
		},{
			"trial_num": 66
			"race": 109
			"word": "safe"
			"raceStim": "w10"
			"wordStim": "harmless"
			"correctResponse": "safe"
			"userResponse": "threatening"
			"correct": 0
			"rt": 670
			"responded": 1
		},{
			"trial_num": 67
			"race": 242
			"word": "safe"
			"raceStim": "b09"
			"wordStim": "friendly"
			"correctResponse": "safe"
			"userResponse": "threatening"
			"correct": 0
			"rt": 754
			"responded": 1
		},{
			"trial_num": 68
			"race": 224
			"word": "threatening"
			"raceStim": "b07"
			"wordStim": "hostile"
			"correctResponse": "threatening"
			"userResponse": "safe"
			"correct": 0
			"rt": 540
			"responded": 1
		},{
			"trial_num": 69
			"race": 3
			"word": "safe"
			"raceStim": "w01"
			"wordStim": "trustworthy"
			"correctResponse": "safe"
			"userResponse": "threatening"
			"correct": 0
			"rt": 842
			"responded": 1
		},{
			"trial_num": 70
			"race": 243
			"word": "safe"
			"raceStim": "b09"
			"wordStim": "trustworthy"
			"correctResponse": "safe"
			"userResponse": "threatening"
			"correct": 0
			"rt": 695
			"responded": 1
		},{
			"trial_num": 71
			"race": 175
			"word": "threatening"
			"raceStim": "b03"
			"wordStim": "dangerous"
			"correctResponse": "threatening"
			"userResponse": "safe"
			"correct": 0
			"rt": 796
			"responded": 1
		},{
			"trial_num": 72
			"race": 144
			"word": "safe"
			"raceStim": "b01"
			"wordStim": "innocent"
			"correct": 0
			"rt": 0
			"responded": 0
		},{
			"trial_num": 73
			"race": 269
			"word": "safe"
			"raceStim": "b11"
			"wordStim": "safe"
			"correctResponse": "safe"
			"userResponse": "threatening"
			"correct": 0
			"rt": 595
			"responded": 1
		},{
			"trial_num": 74
			"race": 6
			"word": "threatening"
			"raceStim": "w01"
			"wordStim": "violent"
			"correctResponse": "threatening"
			"userResponse": "safe"
			"correct": 0
			"rt": 619
			"responded": 1
		},{
			"trial_num": 75
			"race": 155
			"word": "threatening"
			"raceStim": "b01"
			"wordStim": "threatening"
			"correctResponse": "threatening"
			"userResponse": "safe"
			"correct": 0
			"rt": 687
			"responded": 1
		},{
			"trial_num": 76
			"race": 76
			"word": "safe"
			"raceStim": "w07"
			"wordStim": "peaceful"
			"correctResponse": "safe"
			"userResponse": "threatening"
			"correct": 0
			"rt": 705
			"responded": 1
		},{
			"trial_num": 77
			"race": 223
			"word": "threatening"
			"raceStim": "b07"
			"wordStim": "dangerous"
			"correctResponse": "threatening"
			"userResponse": "safe"
			"correct": 0
			"rt": 684
			"responded": 1
		},{
			"trial_num": 78
			"race": 92
			"word": "threatening"
			"raceStim": "w08"
			"wordStim": "hostile"
			"correctResponse": "threatening"
			"userResponse": "safe"
			"correct": 0
			"rt": 593
			"responded": 1
		},{
			"trial_num": 79
			"race": 236
			"word": "threatening"
			"raceStim": "b08"
			"wordStim": "hostile"
			"correctResponse": "threatening"
			"userResponse": "safe"
			"correct": 0
			"rt": 707
			"responded": 1
		},{
			"trial_num": 80
			"race": 10
			"word": "threatening"
			"raceStim": "w01"
			"wordStim": "criminal"
			"correctResponse": "threatening"
			"userResponse": "safe"
			"correct": 0
			"rt": 605
			"responded": 1
		},{
			"trial_num": 81
			"race": 104
			"word": "threatening"
			"raceStim": "w09"
			"wordStim": "hostile"
			"correctResponse": "threatening"
			"userResponse": "safe"
			"correct": 0
			"rt": 693
			"responded": 1
		},{
			"trial_num": 82
			"race": 87
			"word": "safe"
			"raceStim": "w08"
			"wordStim": "trustworthy"
			"correctResponse": "safe"
			"userResponse": "threatening"
			"correct": 0
			"rt": 718
			"responded": 1
		},{
			"trial_num": 83
			"race": 32
			"word": "threatening"
			"raceStim": "w03"
			"wordStim": "hostile"
			"correctResponse": "threatening"
			"userResponse": "safe"
			"correct": 0
			"rt": 563
			"responded": 1
		},{
			"trial_num": 84
			"race": 105
			"word": "threatening"
			"raceStim": "w09"
			"wordStim": "aggressive"
			"correctResponse": "threatening"
			"userResponse": "safe"
			"correct": 0
			"rt": 595
			"responded": 1
		},{
			"trial_num": 85
			"race": 258
			"word": "threatening"
			"raceStim": "b10"
			"wordStim": "violent"
			"correctResponse": "threatening"
			"userResponse": "safe"
			"correct": 0
			"rt": 660
			"responded": 1
		},{
			"trial_num": 86
			"race": 179
			"word": "threatening"
			"raceStim": "b03"
			"wordStim": "threatening"
			"correctResponse": "threatening"
			"userResponse": "safe"
			"correct": 0
			"rt": 682
			"responded": 1
		},{
			"trial_num": 87
			"race": 274
			"word": "threatening"
			"raceStim": "b11"
			"wordStim": "criminal"
			"correctResponse": "threatening"
			"userResponse": "safe"
			"correct": 0
			"rt": 583
			"responded": 1
		},{
			"trial_num": 88
			"race": 277
			"word": "safe"
			"raceStim": "b12"
			"wordStim": "harmless"
			"correctResponse": "safe"
			"userResponse": "safe"
			"correct": 1
			"rt": 519
			"responded": 1
		},{
			"trial_num": 89
			"race": 182
			"word": "safe"
			"raceStim": "b04"
			"wordStim": "friendly"
			"correctResponse": "safe"
			"userResponse": "threatening"
			"correct": 0
			"rt": 895
			"responded": 1
		},{
			"trial_num": 90
			"race": 184
			"word": "safe"
			"raceStim": "b04"
			"wordStim": "peaceful"
			"correct": 0
			"rt": 0
			"responded": 0
		},{
			"trial_num": 91
			"race": 228
			"word": "safe"
			"raceStim": "b08"
			"wordStim": "innocent"
			"correctResponse": "safe"
			"userResponse": "threatening"
			"correct": 0
			"rt": 739
			"responded": 1
		},{
			"trial_num": 92
			"race": 165
			"word": "threatening"
			"raceStim": "b02"
			"wordStim": "aggressive"
			"correctResponse": "threatening"
			"userResponse": "safe"
			"correct": 0
			"rt": 619
			"responded": 1
		},{
			"trial_num": 93
			"race": 49
			"word": "safe"
			"raceStim": "w05"
			"wordStim": "harmless"
			"correctResponse": "safe"
			"userResponse": "threatening"
			"correct": 0
			"rt": 685
			"responded": 1
		},{
			"trial_num": 94
			"race": 222
			"word": "threatening"
			"raceStim": "b07"
			"wordStim": "violent"
			"correctResponse": "threatening"
			"userResponse": "safe"
			"correct": 0
			"rt": 666
			"responded": 1
		},{
			"trial_num": 95
			"race": 220
			"word": "safe"
			"raceStim": "b07"
			"wordStim": "peaceful"
			"correctResponse": "safe"
			"userResponse": "threatening"
			"correct": 0
			"rt": 634
			"responded": 1
		},{
			"trial_num": 96
			"race": 206
			"word": "safe"
			"raceStim": "b06"
			"wordStim": "friendly"
			"correctResponse": "safe"
			"userResponse": "safe"
			"correct": 1
			"rt": 536
			"responded": 1
		},{
			"trial_num": 97
			"race": 116
			"word": "threatening"
			"raceStim": "w10"
			"wordStim": "hostile"
			"correctResponse": "threatening"
			"userResponse": "safe"
			"correct": 0
			"rt": 574
			"responded": 1
		},{
			"trial_num": 98
			"race": 256
			"word": "safe"
			"raceStim": "b10"
			"wordStim": "peaceful"
			"correctResponse": "safe"
			"userResponse": "threatening"
			"correct": 0
			"rt": 613
			"responded": 1
		},{
			"trial_num": 99
			"race": 95
			"word": "threatening"
			"raceStim": "w08"
			"wordStim": "threatening"
			"correctResponse": "threatening"
			"userResponse": "safe"
			"correct": 0
			"rt": 642
			"responded": 1
		},{
			"trial_num": 100
			"race": 98
			"word": "safe"
			"raceStim": "w09"
			"wordStim": "friendly"
			"correctResponse": "safe"
			"userResponse": "threatening"
			"correct": 0
			"rt": 550
			"responded": 1
		},{
			"trial_num": 101
			"race": 47
			"word": "threatening"
			"raceStim": "w04"
			"wordStim": "threatening"
			"correctResponse": "threatening"
			"userResponse": "safe"
			"correct": 0
			"rt": 594
			"responded": 1
		},{
			"trial_num": 102
			"race": 73
			"word": "safe"
			"raceStim": "w07"
			"wordStim": "harmless"
			"correctResponse": "safe"
			"userResponse": "threatening"
			"correct": 0
			"rt": 721
			"responded": 1
		},{
			"trial_num": 103
			"race": 181
			"word": "safe"
			"raceStim": "b04"
			"wordStim": "harmless"
			"correctResponse": "safe"
			"userResponse": "threatening"
			"correct": 0
			"rt": 809
			"responded": 1
		},{
			"trial_num": 104
			"race": 141
			"word": "threatening"
			"raceStim": "w12"
			"wordStim": "aggressive"
			"correctResponse": "threatening"
			"userResponse": "safe"
			"correct": 0
			"rt": 649
			"responded": 1
		},{
			"trial_num": 105
			"race": 153
			"word": "threatening"
			"raceStim": "b01"
			"wordStim": "aggressive"
			"correctResponse": "threatening"
			"userResponse": "safe"
			"correct": 0
			"rt": 672
			"responded": 1
		},{
			"trial_num": 106
			"race": 261
			"word": "threatening"
			"raceStim": "b10"
			"wordStim": "aggressive"
			"correctResponse": "threatening"
			"userResponse": "safe"
			"correct": 0
			"rt": 876
			"responded": 1
		},{
			"trial_num": 107
			"race": 163
			"word": "threatening"
			"raceStim": "b02"
			"wordStim": "dangerous"
			"correctResponse": "threatening"
			"userResponse": "safe"
			"correct": 0
			"rt": 720
			"responded": 1
		},{
			"trial_num": 108
			"race": 42
			"word": "threatening"
			"raceStim": "w04"
			"wordStim": "violent"
			"correctResponse": "threatening"
			"userResponse": "threatening"
			"correct": 1
			"rt": 688
			"responded": 1
		},{
			"trial_num": 109
			"race": 167
			"word": "threatening"
			"raceStim": "b02"
			"wordStim": "threatening"
			"correctResponse": "threatening"
			"userResponse": "safe"
			"correct": 0
			"rt": 604
			"responded": 1
		},{
			"trial_num": 110
			"race": 162
			"word": "threatening"
			"raceStim": "b02"
			"wordStim": "violent"
			"correctResponse": "threatening"
			"userResponse": "safe"
			"correct": 0
			"rt": 857
			"responded": 1
		},{
			"trial_num": 111
			"race": 221
			"word": "safe"
			"raceStim": "b07"
			"wordStim": "safe"
			"correctResponse": "safe"
			"userResponse": "threatening"
			"correct": 0
			"rt": 536
			"responded": 1
		},{
			"trial_num": 112
			"race": 160
			"word": "safe"
			"raceStim": "b02"
			"wordStim": "peaceful"
			"correctResponse": "safe"
			"userResponse": "threatening"
			"correct": 0
			"rt": 522
			"responded": 1
		},{
			"trial_num": 113
			"race": 286
			"word": "threatening"
			"raceStim": "b12"
			"wordStim": "criminal"
			"correctResponse": "threatening"
			"userResponse": "safe"
			"correct": 0
			"rt": 534
			"responded": 1
		},{
			"trial_num": 114
			"race": 278
			"word": "safe"
			"raceStim": "b12"
			"wordStim": "friendly"
			"correctResponse": "safe"
			"userResponse": "threatening"
			"correct": 0
			"rt": 602
			"responded": 1
		},{
			"trial_num": 115
			"race": 252
			"word": "safe"
			"raceStim": "b10"
			"wordStim": "innocent"
			"correctResponse": "safe"
			"userResponse": "threatening"
			"correct": 0
			"rt": 693
			"responded": 1
		},{
			"trial_num": 116
			"race": 150
			"word": "threatening"
			"raceStim": "b01"
			"wordStim": "violent"
			"correctResponse": "threatening"
			"userResponse": "safe"
			"correct": 0
			"rt": 505
			"responded": 1
		},{
			"trial_num": 117
			"race": 55
			"word": "threatening"
			"raceStim": "w05"
			"wordStim": "dangerous"
			"correctResponse": "threatening"
			"userResponse": "safe"
			"correct": 0
			"rt": 616
			"responded": 1
		},{
			"trial_num": 118
			"race": 244
			"word": "safe"
			"raceStim": "b09"
			"wordStim": "peaceful"
			"correctResponse": "safe"
			"userResponse": "threatening"
			"correct": 0
			"rt": 471
			"responded": 1
		},{
			"trial_num": 119
			"race": 133
			"word": "safe"
			"raceStim": "w12"
			"wordStim": "harmless"
			"correctResponse": "safe"
			"userResponse": "safe"
			"correct": 1
			"rt": 416
			"responded": 1
		},{
			"trial_num": 120
			"race": 216
			"word": "safe"
			"raceStim": "b07"
			"wordStim": "innocent"
			"correctResponse": "safe"
			"userResponse": "safe"
			"correct": 1
			"rt": 691
			"responded": 1
		},{
			"trial_num": 121
			"race": 11
			"word": "threatening"
			"raceStim": "w01"
			"wordStim": "threatening"
			"correctResponse": "threatening"
			"userResponse": "safe"
			"correct": 0
			"rt": 717
			"responded": 1
		},{
			"trial_num": 122
			"race": 186
			"word": "threatening"
			"raceStim": "b04"
			"wordStim": "violent"
			"correct": 0
			"rt": 0
			"responded": 0
		},{
			"trial_num": 123
			"race": 158
			"word": "safe"
			"raceStim": "b02"
			"wordStim": "friendly"
			"correctResponse": "safe"
			"userResponse": "threatening"
			"correct": 0
			"rt": 629
			"responded": 1
		},{
			"trial_num": 124
			"race": 188
			"word": "threatening"
			"raceStim": "b04"
			"wordStim": "hostile"
			"correct": 0
			"rt": 0
			"responded": 0
		},{
			"trial_num": 125
			"race": 115
			"word": "threatening"
			"raceStim": "w10"
			"wordStim": "dangerous"
			"correct": 0
			"rt": 0
			"responded": 0
		},{
			"trial_num": 126
			"race": 15
			"word": "safe"
			"raceStim": "w02"
			"wordStim": "trustworthy"
			"correctResponse": "safe"
			"userResponse": "threatening"
			"correct": 0
			"rt": 679
			"responded": 1
		},{
			"trial_num": 127
			"race": 108
			"word": "safe"
			"raceStim": "w10"
			"wordStim": "innocent"
			"correctResponse": "safe"
			"userResponse": "threatening"
			"correct": 0
			"rt": 612
			"responded": 1
		},{
			"trial_num": 128
			"race": 262
			"word": "threatening"
			"raceStim": "b10"
			"wordStim": "criminal"
			"correctResponse": "threatening"
			"userResponse": "safe"
			"correct": 0
			"rt": 515
			"responded": 1
		},{
			"trial_num": 129
			"race": 145
			"word": "safe"
			"raceStim": "b01"
			"wordStim": "harmless"
			"correctResponse": "safe"
			"userResponse": "threatening"
			"correct": 0
			"rt": 648
			"responded": 1
		},{
			"trial_num": 130
			"race": 198
			"word": "threatening"
			"raceStim": "b05"
			"wordStim": "violent"
			"correctResponse": "threatening"
			"userResponse": "safe"
			"correct": 0
			"rt": 580
			"responded": 1
		},{
			"trial_num": 131
			"race": 134
			"word": "safe"
			"raceStim": "w12"
			"wordStim": "friendly"
			"correctResponse": "safe"
			"userResponse": "threatening"
			"correct": 0
			"rt": 560
			"responded": 1
		},{
			"trial_num": 132
			"race": 17
			"word": "safe"
			"raceStim": "w02"
			"wordStim": "safe"
			"correctResponse": "safe"
			"userResponse": "threatening"
			"correct": 0
			"rt": 547
			"responded": 1
		},{
			"trial_num": 133
			"race": 215
			"word": "threatening"
			"raceStim": "b06"
			"wordStim": "threatening"
			"correctResponse": "threatening"
			"userResponse": "safe"
			"correct": 0
			"rt": 591
			"responded": 1
		},{
			"trial_num": 134
			"race": 8
			"word": "threatening"
			"raceStim": "w01"
			"wordStim": "hostile"
			"correctResponse": "threatening"
			"userResponse": "safe"
			"correct": 0
			"rt": 692
			"responded": 1
		},{
			"trial_num": 135
			"race": 214
			"word": "threatening"
			"raceStim": "b06"
			"wordStim": "criminal"
			"correctResponse": "threatening"
			"userResponse": "safe"
			"correct": 0
			"rt": 590
			"responded": 1
		},{
			"trial_num": 136
			"race": 253
			"word": "safe"
			"raceStim": "b10"
			"wordStim": "harmless"
			"correctResponse": "safe"
			"userResponse": "threatening"
			"correct": 0
			"rt": 785
			"responded": 1
		},{
			"trial_num": 137
			"race": 24
			"word": "safe"
			"raceStim": "w03"
			"wordStim": "innocent"
			"correct": 0
			"rt": 0
			"responded": 0
		},{
			"trial_num": 138
			"race": 71
			"word": "threatening"
			"raceStim": "w06"
			"wordStim": "threatening"
			"correctResponse": "threatening"
			"userResponse": "safe"
			"correct": 0
			"rt": 629
			"responded": 1
		},{
			"trial_num": 139
			"race": 101
			"word": "safe"
			"raceStim": "w09"
			"wordStim": "safe"
			"correctResponse": "safe"
			"userResponse": "threatening"
			"correct": 0
			"rt": 551
			"responded": 1
		},{
			"trial_num": 140
			"race": 81
			"word": "threatening"
			"raceStim": "w07"
			"wordStim": "aggressive"
			"correctResponse": "threatening"
			"userResponse": "safe"
			"correct": 0
			"rt": 634
			"responded": 1
		},{
			"trial_num": 141
			"race": 271
			"word": "threatening"
			"raceStim": "b11"
			"wordStim": "dangerous"
			"correct": 0
			"rt": 0
			"responded": 0
		},{
			"trial_num": 142
			"race": 29
			"word": "safe"
			"raceStim": "w03"
			"wordStim": "safe"
			"correctResponse": "safe"
			"userResponse": "threatening"
			"correct": 0
			"rt": 605
			"responded": 1
		},{
			"trial_num": 143
			"race": 281
			"word": "safe"
			"raceStim": "b12"
			"wordStim": "safe"
			"correctResponse": "safe"
			"userResponse": "threatening"
			"correct": 0
			"rt": 605
			"responded": 1
		},{
			"trial_num": 144
			"race": 85
			"word": "safe"
			"raceStim": "w08"
			"wordStim": "harmless"
			"correctResponse": "safe"
			"userResponse": "threatening"
			"correct": 0
			"rt": 691
			"responded": 1
		},{
			"trial_num": 145
			"race": 234
			"word": "threatening"
			"raceStim": "b08"
			"wordStim": "violent"
			"correctResponse": "threatening"
			"userResponse": "safe"
			"correct": 0
			"rt": 603
			"responded": 1
		},{
			"trial_num": 146
			"race": 177
			"word": "threatening"
			"raceStim": "b03"
			"wordStim": "aggressive"
			"correctResponse": "threatening"
			"userResponse": "safe"
			"correct": 0
			"rt": 489
			"responded": 1
		},{
			"trial_num": 147
			"race": 218
			"word": "safe"
			"raceStim": "b07"
			"wordStim": "friendly"
			"correctResponse": "safe"
			"userResponse": "threatening"
			"correct": 0
			"rt": 528
			"responded": 1
		},{
			"trial_num": 148
			"race": 139
			"word": "threatening"
			"raceStim": "w12"
			"wordStim": "dangerous"
			"correctResponse": "threatening"
			"userResponse": "safe"
			"correct": 0
			"rt": 608
			"responded": 1
		},{
			"trial_num": 149
			"race": 5
			"word": "safe"
			"raceStim": "w01"
			"wordStim": "safe"
			"correctResponse": "safe"
			"userResponse": "threatening"
			"correct": 0
			"rt": 535
			"responded": 1
		},{
			"trial_num": 150
			"race": 241
			"word": "safe"
			"raceStim": "b09"
			"wordStim": "harmless"
			"correctResponse": "safe"
			"userResponse": "safe"
			"correct": 1
			"rt": 698
			"responded": 1
		},{
			"trial_num": 151
			"race": 136
			"word": "safe"
			"raceStim": "w12"
			"wordStim": "peaceful"
			"correctResponse": "safe"
			"userResponse": "threatening"
			"correct": 0
			"rt": 584
			"responded": 1
		},{
			"trial_num": 152
			"race": 123
			"word": "safe"
			"raceStim": "w11"
			"wordStim": "trustworthy"
			"correctResponse": "safe"
			"userResponse": "threatening"
			"correct": 0
			"rt": 546
			"responded": 1
		},{
			"trial_num": 153
			"race": 235
			"word": "threatening"
			"raceStim": "b08"
			"wordStim": "dangerous"
			"correctResponse": "threatening"
			"userResponse": "safe"
			"correct": 0
			"rt": 502
			"responded": 1
		},{
			"trial_num": 154
			"race": 67
			"word": "threatening"
			"raceStim": "w06"
			"wordStim": "dangerous"
			"correctResponse": "threatening"
			"userResponse": "safe"
			"correct": 0
			"rt": 650
			"responded": 1
		},{
			"trial_num": 155
			"race": 183
			"word": "safe"
			"raceStim": "b04"
			"wordStim": "trustworthy"
			"correctResponse": "safe"
			"userResponse": "threatening"
			"correct": 0
			"rt": 535
			"responded": 1
		},{
			"trial_num": 156
			"race": 135
			"word": "safe"
			"raceStim": "w12"
			"wordStim": "trustworthy"
			"correctResponse": "safe"
			"userResponse": "threatening"
			"correct": 0
			"rt": 445
			"responded": 1
		},{
			"trial_num": 157
			"race": 143
			"word": "threatening"
			"raceStim": "w12"
			"wordStim": "threatening"
			"correctResponse": "threatening"
			"userResponse": "safe"
			"correct": 0
			"rt": 613
			"responded": 1
		},{
			"trial_num": 158
			"race": 117
			"word": "threatening"
			"raceStim": "w10"
			"wordStim": "aggressive"
			"correctResponse": "threatening"
			"userResponse": "safe"
			"correct": 0
			"rt": 706
			"responded": 1
		},{
			"trial_num": 159
			"race": 280
			"word": "safe"
			"raceStim": "b12"
			"wordStim": "peaceful"
			"correctResponse": "safe"
			"userResponse": "threatening"
			"correct": 0
			"rt": 513
			"responded": 1
		},{
			"trial_num": 160
			"race": 13
			"word": "safe"
			"raceStim": "w02"
			"wordStim": "harmless"
			"correctResponse": "safe"
			"userResponse": "safe"
			"correct": 1
			"rt": 749
			"responded": 1
		},{
			"trial_num": 161
			"race": 22
			"word": "threatening"
			"raceStim": "w02"
			"wordStim": "criminal"
			"correctResponse": "threatening"
			"userResponse": "safe"
			"correct": 0
			"rt": 581
			"responded": 1
		},{
			"trial_num": 162
			"race": 176
			"word": "threatening"
			"raceStim": "b03"
			"wordStim": "hostile"
			"correctResponse": "threatening"
			"userResponse": "safe"
			"correct": 0
			"rt": 540
			"responded": 1
		},{
			"trial_num": 163
			"race": 279
			"word": "safe"
			"raceStim": "b12"
			"wordStim": "trustworthy"
			"correctResponse": "safe"
			"userResponse": "threatening"
			"correct": 0
			"rt": 697
			"responded": 1
		},{
			"trial_num": 164
			"race": 65
			"word": "safe"
			"raceStim": "w06"
			"wordStim": "safe"
			"correctResponse": "safe"
			"userResponse": "threatening"
			"correct": 0
			"rt": 635
			"responded": 1
		},{
			"trial_num": 165
			"race": 94
			"word": "threatening"
			"raceStim": "w08"
			"wordStim": "criminal"
			"correctResponse": "threatening"
			"userResponse": "safe"
			"correct": 0
			"rt": 457
			"responded": 1
		},{
			"trial_num": 166
			"race": 89
			"word": "safe"
			"raceStim": "w08"
			"wordStim": "safe"
			"correctResponse": "safe"
			"userResponse": "threatening"
			"correct": 0
			"rt": 528
			"responded": 1
		},{
			"trial_num": 167
			"race": 194
			"word": "safe"
			"raceStim": "b05"
			"wordStim": "friendly"
			"correctResponse": "safe"
			"userResponse": "threatening"
			"correct": 0
			"rt": 648
			"responded": 1
		},{
			"trial_num": 168
			"race": 119
			"word": "threatening"
			"raceStim": "w10"
			"wordStim": "threatening"
			"correctResponse": "threatening"
			"userResponse": "safe"
			"correct": 0
			"rt": 491
			"responded": 1
		},{
			"trial_num": 169
			"race": 1
			"word": "safe"
			"raceStim": "w01"
			"wordStim": "harmless"
			"correctResponse": "safe"
			"userResponse": "threatening"
			"correct": 0
			"rt": 640
			"responded": 1
		},{
			"trial_num": 170
			"race": 191
			"word": "threatening"
			"raceStim": "b04"
			"wordStim": "threatening"
			"correctResponse": "threatening"
			"userResponse": "safe"
			"correct": 0
			"rt": 603
			"responded": 1
		},{
			"trial_num": 171
			"race": 173
			"word": "safe"
			"raceStim": "b03"
			"wordStim": "safe"
			"correctResponse": "safe"
			"userResponse": "threatening"
			"correct": 0
			"rt": 472
			"responded": 1
		},{
			"trial_num": 172
			"race": 203
			"word": "threatening"
			"raceStim": "b05"
			"wordStim": "threatening"
			"correctResponse": "threatening"
			"userResponse": "safe"
			"correct": 0
			"rt": 541
			"responded": 1
		},{
			"trial_num": 173
			"race": 128
			"word": "threatening"
			"raceStim": "w11"
			"wordStim": "hostile"
			"correctResponse": "threatening"
			"userResponse": "safe"
			"correct": 0
			"rt": 594
			"responded": 1
		},{
			"trial_num": 174
			"race": 120
			"word": "safe"
			"raceStim": "w11"
			"wordStim": "innocent"
			"correctResponse": "safe"
			"userResponse": "threatening"
			"correct": 0
			"rt": 518
			"responded": 1
		},{
			"trial_num": 175
			"race": 62
			"word": "safe"
			"raceStim": "w06"
			"wordStim": "friendly"
			"correctResponse": "safe"
			"userResponse": "threatening"
			"correct": 0
			"rt": 631
			"responded": 1
		},{
			"trial_num": 176
			"race": 102
			"word": "threatening"
			"raceStim": "w09"
			"wordStim": "violent"
			"correctResponse": "threatening"
			"userResponse": "safe"
			"correct": 0
			"rt": 591
			"responded": 1
		},{
			"trial_num": 177
			"race": 69
			"word": "threatening"
			"raceStim": "w06"
			"wordStim": "aggressive"
			"correctResponse": "threatening"
			"userResponse": "safe"
			"correct": 0
			"rt": 575
			"responded": 1
		},{
			"trial_num": 178
			"race": 208
			"word": "safe"
			"raceStim": "b06"
			"wordStim": "peaceful"
			"correctResponse": "safe"
			"userResponse": "threatening"
			"correct": 0
			"rt": 513
			"responded": 1
		},{
			"trial_num": 179
			"race": 199
			"word": "threatening"
			"raceStim": "b05"
			"wordStim": "dangerous"
			"correctResponse": "threatening"
			"userResponse": "safe"
			"correct": 0
			"rt": 560
			"responded": 1
		},{
			"trial_num": 180
			"race": 86
			"word": "safe"
			"raceStim": "w08"
			"wordStim": "friendly"
			"correctResponse": "safe"
			"userResponse": "threatening"
			"correct": 0
			"rt": 559
			"responded": 1
		},{
			"trial_num": 181
			"race": 43
			"word": "threatening"
			"raceStim": "w04"
			"wordStim": "dangerous"
			"correctResponse": "threatening"
			"userResponse": "safe"
			"correct": 0
			"rt": 553
			"responded": 1
		},{
			"trial_num": 182
			"race": 202
			"word": "threatening"
			"raceStim": "b05"
			"wordStim": "criminal"
			"correctResponse": "threatening"
			"userResponse": "threatening"
			"correct": 1
			"rt": 543
			"responded": 1
		},{
			"trial_num": 183
			"race": 283
			"word": "threatening"
			"raceStim": "b12"
			"wordStim": "dangerous"
			"correctResponse": "threatening"
			"userResponse": "safe"
			"correct": 0
			"rt": 878
			"responded": 1
		},{
			"trial_num": 184
			"race": 56
			"word": "threatening"
			"raceStim": "w05"
			"wordStim": "hostile"
			"correctResponse": "threatening"
			"userResponse": "safe"
			"correct": 0
			"rt": 786
			"responded": 1
		},{
			"trial_num": 185
			"race": 84
			"word": "safe"
			"raceStim": "w08"
			"wordStim": "innocent"
			"correctResponse": "safe"
			"userResponse": "threatening"
			"correct": 0
			"rt": 532
			"responded": 1
		},{
			"trial_num": 186
			"race": 75
			"word": "safe"
			"raceStim": "w07"
			"wordStim": "trustworthy"
			"correctResponse": "safe"
			"userResponse": "threatening"
			"correct": 0
			"rt": 829
			"responded": 1
		},{
			"trial_num": 187
			"race": 130
			"word": "threatening"
			"raceStim": "w11"
			"wordStim": "criminal"
			"correctResponse": "threatening"
			"userResponse": "safe"
			"correct": 0
			"rt": 596
			"responded": 1
		},{
			"trial_num": 188
			"race": 90
			"word": "threatening"
			"raceStim": "w08"
			"wordStim": "violent"
			"correctResponse": "threatening"
			"userResponse": "safe"
			"correct": 0
			"rt": 502
			"responded": 1
		},{
			"trial_num": 189
			"race": 245
			"word": "safe"
			"raceStim": "b09"
			"wordStim": "safe"
			"correctResponse": "safe"
			"userResponse": "threatening"
			"correct": 0
			"rt": 502
			"responded": 1
		},{
			"trial_num": 190
			"race": 106
			"word": "threatening"
			"raceStim": "w09"
			"wordStim": "criminal"
			"correctResponse": "threatening"
			"userResponse": "safe"
			"correct": 0
			"rt": 686
			"responded": 1
		},{
			"trial_num": 191
			"race": 21
			"word": "threatening"
			"raceStim": "w02"
			"wordStim": "aggressive"
			"correctResponse": "threatening"
			"userResponse": "safe"
			"correct": 0
			"rt": 615
			"responded": 1
		},{
			"trial_num": 192
			"race": 146
			"word": "safe"
			"raceStim": "b01"
			"wordStim": "friendly"
			"correctResponse": "safe"
			"userResponse": "threatening"
			"correct": 0
			"rt": 537
			"responded": 1
		},{
			"trial_num": 193
			"race": 97
			"word": "safe"
			"raceStim": "w09"
			"wordStim": "harmless"
			"correctResponse": "safe"
			"userResponse": "threatening"
			"correct": 0
			"rt": 791
			"responded": 1
		},{
			"trial_num": 194
			"race": 60
			"word": "safe"
			"raceStim": "w06"
			"wordStim": "innocent"
			"correctResponse": "safe"
			"userResponse": "threatening"
			"correct": 0
			"rt": 798
			"responded": 1
		},{
			"trial_num": 195
			"race": 131
			"word": "threatening"
			"raceStim": "w11"
			"wordStim": "threatening"
			"correctResponse": "threatening"
			"userResponse": "safe"
			"correct": 0
			"rt": 593
			"responded": 1
		},{
			"trial_num": 196
			"race": 19
			"word": "threatening"
			"raceStim": "w02"
			"wordStim": "dangerous"
			"correctResponse": "threatening"
			"userResponse": "safe"
			"correct": 0
			"rt": 630
			"responded": 1
		},{
			"trial_num": 197
			"race": 51
			"word": "safe"
			"raceStim": "w05"
			"wordStim": "trustworthy"
			"correctResponse": "safe"
			"userResponse": "threatening"
			"correct": 0
			"rt": 686
			"responded": 1
		},{
			"trial_num": 198
			"race": 229
			"word": "safe"
			"raceStim": "b08"
			"wordStim": "harmless"
			"correctResponse": "safe"
			"userResponse": "threatening"
			"correct": 0
			"rt": 759
			"responded": 1
		},{
			"trial_num": 199
			"race": 169
			"word": "safe"
			"raceStim": "b03"
			"wordStim": "harmless"
			"correctResponse": "safe"
			"userResponse": "threatening"
			"correct": 0
			"rt": 513
			"responded": 1
		},{
			"trial_num": 200
			"race": 239
			"word": "threatening"
			"raceStim": "b08"
			"wordStim": "threatening"
			"correctResponse": "threatening"
			"userResponse": "safe"
			"correct": 0
			"rt": 450
			"responded": 1
		},{
			"trial_num": 201
			"race": 125
			"word": "safe"
			"raceStim": "w11"
			"wordStim": "safe"
			"correctResponse": "safe"
			"userResponse": "threatening"
			"correct": 0
			"rt": 457
			"responded": 1
		},{
			"trial_num": 202
			"race": 207
			"word": "safe"
			"raceStim": "b06"
			"wordStim": "trustworthy"
			"correctResponse": "safe"
			"userResponse": "threatening"
			"correct": 0
			"rt": 603
			"responded": 1
		},{
			"trial_num": 203
			"race": 168
			"word": "safe"
			"raceStim": "b03"
			"wordStim": "innocent"
			"correctResponse": "safe"
			"userResponse": "threatening"
			"correct": 0
			"rt": 659
			"responded": 1
		},{
			"trial_num": 204
			"race": 284
			"word": "threatening"
			"raceStim": "b12"
			"wordStim": "hostile"
			"correctResponse": "threatening"
			"userResponse": "safe"
			"correct": 0
			"rt": 590
			"responded": 1
		},{
			"trial_num": 205
			"race": 161
			"word": "safe"
			"raceStim": "b02"
			"wordStim": "safe"
			"correctResponse": "safe"
			"userResponse": "threatening"
			"correct": 0
			"rt": 556
			"responded": 1
		},{
			"trial_num": 206
			"race": 226
			"word": "threatening"
			"raceStim": "b07"
			"wordStim": "criminal"
			"correctResponse": "threatening"
			"userResponse": "safe"
			"correct": 0
			"rt": 604
			"responded": 1
		},{
			"trial_num": 207
			"race": 233
			"word": "safe"
			"raceStim": "b08"
			"wordStim": "safe"
			"correctResponse": "safe"
			"userResponse": "threatening"
			"correct": 0
			"rt": 523
			"responded": 1
		},{
			"trial_num": 208
			"race": 61
			"word": "safe"
			"raceStim": "w06"
			"wordStim": "harmless"
			"correct": 0
			"rt": 0
			"responded": 0
		},{
			"trial_num": 209
			"race": 285
			"word": "threatening"
			"raceStim": "b12"
			"wordStim": "aggressive"
			"correct": 0
			"rt": 0
			"responded": 0
		},{
			"trial_num": 210
			"race": 196
			"word": "safe"
			"raceStim": "b05"
			"wordStim": "peaceful"
			"correctResponse": "safe"
			"userResponse": "threatening"
			"correct": 0
			"rt": 579
			"responded": 1
		},{
			"trial_num": 211
			"race": 192
			"word": "safe"
			"raceStim": "b05"
			"wordStim": "innocent"
			"correctResponse": "safe"
			"userResponse": "threatening"
			"correct": 0
			"rt": 607
			"responded": 1
		},{
			"trial_num": 212
			"race": 31
			"word": "threatening"
			"raceStim": "w03"
			"wordStim": "dangerous"
			"correctResponse": "threatening"
			"userResponse": "safe"
			"correct": 0
			"rt": 662
			"responded": 1
		},{
			"trial_num": 213
			"race": 66
			"word": "threatening"
			"raceStim": "w06"
			"wordStim": "violent"
			"correctResponse": "threatening"
			"userResponse": "threatening"
			"correct": 1
			"rt": 789
			"responded": 1
		},{
			"trial_num": 214
			"race": 151
			"word": "threatening"
			"raceStim": "b01"
			"wordStim": "dangerous"
			"correctResponse": "threatening"
			"userResponse": "safe"
			"correct": 0
			"rt": 584
			"responded": 1
		},{
			"trial_num": 215
			"race": 210
			"word": "threatening"
			"raceStim": "b06"
			"wordStim": "violent"
			"correctResponse": "threatening"
			"userResponse": "safe"
			"correct": 0
			"rt": 490
			"responded": 1
		},{
			"trial_num": 216
			"race": 126
			"word": "threatening"
			"raceStim": "w11"
			"wordStim": "violent"
			"correctResponse": "threatening"
			"userResponse": "safe"
			"correct": 0
			"rt": 529
			"responded": 1
		},{
			"trial_num": 217
			"race": 23
			"word": "threatening"
			"raceStim": "w02"
			"wordStim": "threatening"
			"correctResponse": "threatening"
			"userResponse": "safe"
			"correct": 0
			"rt": 480
			"responded": 1
		},{
			"trial_num": 218
			"race": 30
			"word": "threatening"
			"raceStim": "w03"
			"wordStim": "violent"
			"correctResponse": "threatening"
			"userResponse": "safe"
			"correct": 0
			"rt": 459
			"responded": 1
		},{
			"trial_num": 219
			"race": 200
			"word": "threatening"
			"raceStim": "b05"
			"wordStim": "hostile"
			"correctResponse": "threatening"
			"userResponse": "safe"
			"correct": 0
			"rt": 501
			"responded": 1
		},{
			"trial_num": 220
			"race": 54
			"word": "threatening"
			"raceStim": "w05"
			"wordStim": "violent"
			"correctResponse": "threatening"
			"userResponse": "safe"
			"correct": 0
			"rt": 469
			"responded": 1
		},{
			"trial_num": 221
			"race": 82
			"word": "threatening"
			"raceStim": "w07"
			"wordStim": "criminal"
			"correctResponse": "threatening"
			"userResponse": "safe"
			"correct": 0
			"rt": 468
			"responded": 1
		},{
			"trial_num": 222
			"race": 267
			"word": "safe"
			"raceStim": "b11"
			"wordStim": "trustworthy"
			"correctResponse": "safe"
			"userResponse": "safe"
			"correct": 1
			"rt": 391
			"responded": 1
		},{
			"trial_num": 223
			"race": 114
			"word": "threatening"
			"raceStim": "w10"
			"wordStim": "violent"
			"correctResponse": "threatening"
			"userResponse": "safe"
			"correct": 0
			"rt": 558
			"responded": 1
		},{
			"trial_num": 224
			"race": 107
			"word": "threatening"
			"raceStim": "w09"
			"wordStim": "threatening"
			"correctResponse": "threatening"
			"userResponse": "safe"
			"correct": 0
			"rt": 489
			"responded": 1
		},{
			"trial_num": 225
			"race": 248
			"word": "threatening"
			"raceStim": "b09"
			"wordStim": "hostile"
			"correctResponse": "threatening"
			"userResponse": "safe"
			"correct": 0
			"rt": 642
			"responded": 1
		},{
			"trial_num": 226
			"race": 129
			"word": "threatening"
			"raceStim": "w11"
			"wordStim": "aggressive"
			"correctResponse": "threatening"
			"userResponse": "safe"
			"correct": 0
			"rt": 550
			"responded": 1
		},{
			"trial_num": 227
			"race": 112
			"word": "safe"
			"raceStim": "w10"
			"wordStim": "peaceful"
			"correctResponse": "safe"
			"userResponse": "threatening"
			"correct": 0
			"rt": 535
			"responded": 1
		},{
			"trial_num": 228
			"race": 118
			"word": "threatening"
			"raceStim": "w10"
			"wordStim": "criminal"
			"correctResponse": "threatening"
			"userResponse": "safe"
			"correct": 0
			"rt": 479
			"responded": 1
		},{
			"trial_num": 229
			"race": 287
			"word": "threatening"
			"raceStim": "b12"
			"wordStim": "threatening"
			"correctResponse": "threatening"
			"userResponse": "safe"
			"correct": 0
			"rt": 550
			"responded": 1
		},{
			"trial_num": 230
			"race": 113
			"word": "safe"
			"raceStim": "w10"
			"wordStim": "safe"
			"correctResponse": "safe"
			"userResponse": "threatening"
			"correct": 0
			"rt": 488
			"responded": 1
		},{
			"trial_num": 231
			"race": 197
			"word": "safe"
			"raceStim": "b05"
			"wordStim": "safe"
			"correctResponse": "safe"
			"userResponse": "threatening"
			"correct": 0
			"rt": 573
			"responded": 1
		},{
			"trial_num": 232
			"race": 171
			"word": "safe"
			"raceStim": "b03"
			"wordStim": "trustworthy"
			"correctResponse": "safe"
			"userResponse": "threatening"
			"correct": 0
			"rt": 585
			"responded": 1
		},{
			"trial_num": 233
			"race": 209
			"word": "safe"
			"raceStim": "b06"
			"wordStim": "safe"
			"correctResponse": "safe"
			"userResponse": "threatening"
			"correct": 0
			"rt": 490
			"responded": 1
		},{
			"trial_num": 234
			"race": 157
			"word": "safe"
			"raceStim": "b02"
			"wordStim": "harmless"
			"correctResponse": "safe"
			"userResponse": "safe"
			"correct": 1
			"rt": 525
			"responded": 1
		},{
			"trial_num": 235
			"race": 4
			"word": "safe"
			"raceStim": "w01"
			"wordStim": "peaceful"
			"correctResponse": "safe"
			"userResponse": "threatening"
			"correct": 0
			"rt": 503
			"responded": 1
		},{
			"trial_num": 236
			"race": 77
			"word": "safe"
			"raceStim": "w07"
			"wordStim": "safe"
			"correctResponse": "safe"
			"userResponse": "threatening"
			"correct": 0
			"rt": 547
			"responded": 1
		},{
			"trial_num": 237
			"race": 103
			"word": "threatening"
			"raceStim": "w09"
			"wordStim": "dangerous"
			"correctResponse": "threatening"
			"userResponse": "safe"
			"correct": 0
			"rt": 613
			"responded": 1
		},{
			"trial_num": 238
			"race": 159
			"word": "safe"
			"raceStim": "b02"
			"wordStim": "trustworthy"
			"correctResponse": "safe"
			"userResponse": "threatening"
			"correct": 0
			"rt": 516
			"responded": 1
		},{
			"trial_num": 239
			"race": 83
			"word": "threatening"
			"raceStim": "w07"
			"wordStim": "threatening"
			"correctResponse": "threatening"
			"userResponse": "safe"
			"correct": 0
			"rt": 616
			"responded": 1
		},{
			"trial_num": 240
			"race": 257
			"word": "safe"
			"raceStim": "b10"
			"wordStim": "safe"
			"correctResponse": "safe"
			"userResponse": "threatening"
			"correct": 0
			"rt": 481
			"responded": 1
		},{
			"trial_num": 241
			"race": 96
			"word": "safe"
			"raceStim": "w09"
			"wordStim": "innocent"
			"correctResponse": "safe"
			"userResponse": "threatening"
			"correct": 0
			"rt": 581
			"responded": 1
		},{
			"trial_num": 242
			"race": 276
			"word": "safe"
			"raceStim": "b12"
			"wordStim": "innocent"
			"correctResponse": "safe"
			"userResponse": "threatening"
			"correct": 0
			"rt": 526
			"responded": 1
		},{
			"trial_num": 243
			"race": 78
			"word": "threatening"
			"raceStim": "w07"
			"wordStim": "violent"
			"correctResponse": "threatening"
			"userResponse": "safe"
			"correct": 0
			"rt": 468
			"responded": 1
		},{
			"trial_num": 244
			"race": 268
			"word": "safe"
			"raceStim": "b11"
			"wordStim": "peaceful"
			"correctResponse": "safe"
			"userResponse": "threatening"
			"correct": 0
			"rt": 412
			"responded": 1
		},{
			"trial_num": 245
			"race": 50
			"word": "safe"
			"raceStim": "w05"
			"wordStim": "friendly"
			"correctResponse": "safe"
			"userResponse": "threatening"
			"correct": 0
			"rt": 616
			"responded": 1
		},{
			"trial_num": 246
			"race": 37
			"word": "safe"
			"raceStim": "w04"
			"wordStim": "harmless"
			"correctResponse": "safe"
			"userResponse": "threatening"
			"correct": 0
			"rt": 423
			"responded": 1
		},{
			"trial_num": 247
			"race": 80
			"word": "threatening"
			"raceStim": "w07"
			"wordStim": "hostile"
			"correctResponse": "threatening"
			"userResponse": "safe"
			"correct": 0
			"rt": 684
			"responded": 1
		},{
			"trial_num": 248
			"race": 142
			"word": "threatening"
			"raceStim": "w12"
			"wordStim": "criminal"
			"correctResponse": "threatening"
			"userResponse": "safe"
			"correct": 0
			"rt": 804
			"responded": 1
		},{
			"trial_num": 249
			"race": 132
			"word": "safe"
			"raceStim": "w12"
			"wordStim": "innocent"
			"correctResponse": "safe"
			"userResponse": "threatening"
			"correct": 0
			"rt": 862
			"responded": 1
		},{
			"trial_num": 250
			"race": 59
			"word": "threatening"
			"raceStim": "w05"
			"wordStim": "threatening"
			"correctResponse": "threatening"
			"userResponse": "safe"
			"correct": 0
			"rt": 560
			"responded": 1
		},{
			"trial_num": 251
			"race": 240
			"word": "safe"
			"raceStim": "b09"
			"wordStim": "innocent"
			"correctResponse": "safe"
			"userResponse": "threatening"
			"correct": 0
			"rt": 572
			"responded": 1
		},{
			"trial_num": 252
			"race": 111
			"word": "safe"
			"raceStim": "w10"
			"wordStim": "trustworthy"
			"correctResponse": "safe"
			"userResponse": "safe"
			"correct": 1
			"rt": 569
			"responded": 1
		},{
			"trial_num": 253
			"race": 0
			"word": "safe"
			"raceStim": "w01"
			"wordStim": "innocent"
			"correctResponse": "safe"
			"userResponse": "safe"
			"correct": 1
			"rt": 582
			"responded": 1
		},{
			"trial_num": 254
			"race": 246
			"word": "threatening"
			"raceStim": "b09"
			"wordStim": "violent"
			"correctResponse": "threatening"
			"userResponse": "safe"
			"correct": 0
			"rt": 717
			"responded": 1
		},{
			"trial_num": 255
			"race": 44
			"word": "threatening"
			"raceStim": "w04"
			"wordStim": "hostile"
			"correctResponse": "threatening"
			"userResponse": "safe"
			"correct": 0
			"rt": 547
			"responded": 1
		},{
			"trial_num": 256
			"race": 7
			"word": "threatening"
			"raceStim": "w01"
			"wordStim": "dangerous"
			"correctResponse": "threatening"
			"userResponse": "safe"
			"correct": 0
			"rt": 636
			"responded": 1
		},{
			"trial_num": 257
			"race": 127
			"word": "threatening"
			"raceStim": "w11"
			"wordStim": "dangerous"
			"correctResponse": "threatening"
			"userResponse": "safe"
			"correct": 0
			"rt": 603
			"responded": 1
		},{
			"trial_num": 258
			"race": 124
			"word": "safe"
			"raceStim": "w11"
			"wordStim": "peaceful"
			"correctResponse": "safe"
			"userResponse": "threatening"
			"correct": 0
			"rt": 548
			"responded": 1
		},{
			"trial_num": 259
			"race": 148
			"word": "safe"
			"raceStim": "b01"
			"wordStim": "peaceful"
			"correctResponse": "safe"
			"userResponse": "threatening"
			"correct": 0
			"rt": 558
			"responded": 1
		},{
			"trial_num": 260
			"race": 273
			"word": "threatening"
			"raceStim": "b11"
			"wordStim": "aggressive"
			"correctResponse": "threatening"
			"userResponse": "safe"
			"correct": 0
			"rt": 478
			"responded": 1
		},{
			"trial_num": 261
			"race": 154
			"word": "threatening"
			"raceStim": "b01"
			"wordStim": "criminal"
			"correctResponse": "threatening"
			"userResponse": "safe"
			"correct": 0
			"rt": 548
			"responded": 1
		},{
			"trial_num": 262
			"race": 25
			"word": "safe"
			"raceStim": "w03"
			"wordStim": "harmless"
			"correctResponse": "safe"
			"userResponse": "threatening"
			"correct": 0
			"rt": 659
			"responded": 1
		},{
			"trial_num": 263
			"race": 41
			"word": "safe"
			"raceStim": "w04"
			"wordStim": "safe"
			"correctResponse": "safe"
			"userResponse": "threatening"
			"correct": 0
			"rt": 559
			"responded": 1
		},{
			"trial_num": 264
			"race": 46
			"word": "threatening"
			"raceStim": "w04"
			"wordStim": "criminal"
			"correctResponse": "threatening"
			"userResponse": "safe"
			"correct": 0
			"rt": 594
			"responded": 1
		},{
			"trial_num": 265
			"race": 195
			"word": "safe"
			"raceStim": "b05"
			"wordStim": "trustworthy"
			"correctResponse": "safe"
			"userResponse": "threatening"
			"correct": 0
			"rt": 570
			"responded": 1
		},{
			"trial_num": 266
			"race": 40
			"word": "safe"
			"raceStim": "w04"
			"wordStim": "peaceful"
			"correctResponse": "safe"
			"userResponse": "threatening"
			"correct": 0
			"rt": 670
			"responded": 1
		},{
			"trial_num": 267
			"race": 174
			"word": "threatening"
			"raceStim": "b03"
			"wordStim": "violent"
			"correctResponse": "threatening"
			"userResponse": "safe"
			"correct": 0
			"rt": 492
			"responded": 1
		},{
			"trial_num": 268
			"race": 189
			"word": "threatening"
			"raceStim": "b04"
			"wordStim": "aggressive"
			"correctResponse": "threatening"
			"userResponse": "safe"
			"correct": 0
			"rt": 554
			"responded": 1
		},{
			"trial_num": 269
			"race": 110
			"word": "safe"
			"raceStim": "w10"
			"wordStim": "friendly"
			"correctResponse": "safe"
			"userResponse": "threatening"
			"correct": 0
			"rt": 490
			"responded": 1
		},{
			"trial_num": 270
			"race": 178
			"word": "threatening"
			"raceStim": "b03"
			"wordStim": "criminal"
			"correctResponse": "threatening"
			"userResponse": "safe"
			"correct": 0
			"rt": 596
			"responded": 1
		},{
			"trial_num": 271
			"race": 180
			"word": "safe"
			"raceStim": "b04"
			"wordStim": "innocent"
			"correctResponse": "safe"
			"userResponse": "threatening"
			"correct": 0
			"rt": 641
			"responded": 1
		},{
			"trial_num": 272
			"race": 237
			"word": "threatening"
			"raceStim": "b08"
			"wordStim": "aggressive"
			"correctResponse": "threatening"
			"userResponse": "threatening"
			"correct": 1
			"rt": 593
			"responded": 1
		},{
			"trial_num": 273
			"race": 100
			"word": "safe"
			"raceStim": "w09"
			"wordStim": "peaceful"
			"correctResponse": "safe"
			"userResponse": "threatening"
			"correct": 0
			"rt": 741
			"responded": 1
		},{
			"trial_num": 274
			"race": 219
			"word": "safe"
			"raceStim": "b07"
			"wordStim": "trustworthy"
			"correctResponse": "safe"
			"userResponse": "threatening"
			"correct": 0
			"rt": 625
			"responded": 1
		},{
			"trial_num": 275
			"race": 172
			"word": "safe"
			"raceStim": "b03"
			"wordStim": "peaceful"
			"correctResponse": "safe"
			"userResponse": "threatening"
			"correct": 0
			"rt": 504
			"responded": 1
		},{
			"trial_num": 276
			"race": 190
			"word": "threatening"
			"raceStim": "b04"
			"wordStim": "criminal"
			"correctResponse": "threatening"
			"userResponse": "safe"
			"correct": 0
			"rt": 524
			"responded": 1
		},{
			"trial_num": 277
			"race": 251
			"word": "threatening"
			"raceStim": "b09"
			"wordStim": "threatening"
			"correctResponse": "threatening"
			"userResponse": "threatening"
			"correct": 1
			"rt": 538
			"responded": 1
		},{
			"trial_num": 278
			"race": 52
			"word": "safe"
			"raceStim": "w05"
			"wordStim": "peaceful"
			"correctResponse": "safe"
			"userResponse": "threatening"
			"correct": 0
			"rt": 547
			"responded": 1
		},{
			"trial_num": 279
			"race": 122
			"word": "safe"
			"raceStim": "w11"
			"wordStim": "friendly"
			"correctResponse": "safe"
			"userResponse": "threatening"
			"correct": 0
			"rt": 876
			"responded": 1
		},{
			"trial_num": 280
			"race": 16
			"word": "safe"
			"raceStim": "w02"
			"wordStim": "peaceful"
			"correctResponse": "safe"
			"userResponse": "threatening"
			"correct": 0
			"rt": 538
			"responded": 1
		},{
			"trial_num": 281
			"race": 282
			"word": "threatening"
			"raceStim": "b12"
			"wordStim": "violent"
			"correctResponse": "threatening"
			"userResponse": "safe"
			"correct": 0
			"rt": 554
			"responded": 1
		},{
			"trial_num": 282
			"race": 63
			"word": "safe"
			"raceStim": "w06"
			"wordStim": "trustworthy"
			"correctResponse": "safe"
			"userResponse": "threatening"
			"correct": 0
			"rt": 558
			"responded": 1
		},{
			"trial_num": 283
			"race": 27
			"word": "safe"
			"raceStim": "w03"
			"wordStim": "trustworthy"
			"correctResponse": "safe"
			"userResponse": "threatening"
			"correct": 0
			"rt": 572
			"responded": 1
		},{
			"trial_num": 284
			"race": 91
			"word": "threatening"
			"raceStim": "w08"
			"wordStim": "dangerous"
			"correctResponse": "threatening"
			"userResponse": "safe"
			"correct": 0
			"rt": 727
			"responded": 1
		},{
			"trial_num": 285
			"race": 70
			"word": "threatening"
			"raceStim": "w06"
			"wordStim": "criminal"
			"correctResponse": "threatening"
			"userResponse": "threatening"
			"correct": 1
			"rt": 616
			"responded": 1
		},{
			"trial_num": 286
			"race": 74
			"word": "safe"
			"raceStim": "w07"
			"wordStim": "friendly"
			"correctResponse": "safe"
			"userResponse": "safe"
			"correct": 1
			"rt": 574
			"responded": 1
		},{
			"trial_num": 287
			"race": 149
			"word": "safe"
			"raceStim": "b01"
			"wordStim": "safe"
			"correctResponse": "safe"
			"userResponse": "threatening"
			"correct": 0
			"rt": 548
			"responded": 1
		},{
			"trial_num": 288
			"race": 140
			"word": "threatening"
			"raceStim": "w12"
			"wordStim": "hostile"
			"correctResponse": "threatening"
			"userResponse": "threatening"
			"correct": 1
			"rt": 569
			"responded": 1
		}]
"demographicsData": [{
	"Age": "22"
	"Male": "0"
	"Ethnicity": "2"
	"SES": "4"
	"ReligiousAffiliation": "None"
	"ReligiousAttendance": "1"
	"Education": "4"
	"Citizen": "1"
	"Political": "7"
	"Comments": "No"
}]
    },
    "AcceptTime": "2017-11-24T23:59:23Z",
    "HITId": "3VI0PC2ZAYKTWSCTRGVDNSP37HEOXD",
    "Assignment": "",
    "AssignmentStatus": "Submitted",
    "SubmitTime": "2017-11-25T00:08:34Z"
}